time,.header.seq,.header.stamp.secs,.header.stamp.nsecs,.header.frame_id,.orientation.x,.orientation.y,.orientation.z,.orientation.w,.orientation_covariance,.angular_velocity.x,.angular_velocity.y,.angular_velocity.z,.angular_velocity_covariance,.linear_acceleration.x,.linear_acceleration.y,.linear_acceleration.z,.linear_acceleration_covariance
2018/12/16/17:23:04.044862,109448,1545002584,44608116,imu_link,-0.0429498306258,-0.0332983076407,0.69348495771,0.718418504904,"(0.02, 0.0, 0.0, 0.0, 0.02, 0.0, 0.0, 0.0, 0.02)",0.0,0.0,0.0,"(0.0, 0.0, 0.0, 0.0, 0.0, 0.0, 0.0, 0.0, 0.0)",0.0,0.0,0.0,"(0.0, 0.0, 0.0, 0.0, 0.0, 0.0, 0.0, 0.0, 0.0)"
2018/12/16/17:23:04.055013,109449,1545002584,54698944,imu_link,-0.0429513725365,-0.0333279801931,0.693493120125,0.718409157564,"(0.02, 0.0, 0.0, 0.0, 0.02, 0.0, 0.0, 0.0, 0.02)",0.0,0.0,0.0,"(0.0, 0.0, 0.0, 0.0, 0.0, 0.0, 0.0, 0.0, 0.0)",0.0,0.0,0.0,"(0.0, 0.0, 0.0, 0.0, 0.0, 0.0, 0.0, 0.0, 0.0)"
2018/12/16/17:23:04.064810,109450,1545002584,64589977,imu_link,-0.0429530961488,-0.0333722510555,0.69351256792,0.718388225493,"(0.02, 0.0, 0.0, 0.0, 0.02, 0.0, 0.0, 0.0, 0.02)",0.0,0.0,0.0,"(0.0, 0.0, 0.0, 0.0, 0.0, 0.0, 0.0, 0.0, 0.0)",0.0,0.0,0.0,"(0.0, 0.0, 0.0, 0.0, 0.0, 0.0, 0.0, 0.0, 0.0)"
2018/12/16/17:23:04.075438,109451,1545002584,75256109,imu_link,-0.0429592554867,-0.0333784291649,0.693524262533,0.71837628031,"(0.02, 0.0, 0.0, 0.0, 0.02, 0.0, 0.0, 0.0, 0.02)",0.0,0.0,0.0,"(0.0, 0.0, 0.0, 0.0, 0.0, 0.0, 0.0, 0.0, 0.0)",0.0,0.0,0.0,"(0.0, 0.0, 0.0, 0.0, 0.0, 0.0, 0.0, 0.0, 0.0)"
2018/12/16/17:23:04.084798,109452,1545002584,84600925,imu_link,-0.0429348298354,-0.0333997095822,0.69354092818,0.718360662012,"(0.02, 0.0, 0.0, 0.0, 0.02, 0.0, 0.0, 0.0, 0.02)",0.0,0.0,0.0,"(0.0, 0.0, 0.0, 0.0, 0.0, 0.0, 0.0, 0.0, 0.0)",0.0,0.0,0.0,"(0.0, 0.0, 0.0, 0.0, 0.0, 0.0, 0.0, 0.0, 0.0)"
2018/12/16/17:23:04.094776,109453,1545002584,94561100,imu_link,-0.0429030257687,-0.0334142741789,0.69355695707,0.718346409444,"(0.02, 0.0, 0.0, 0.0, 0.02, 0.0, 0.0, 0.0, 0.02)",0.0,0.0,0.0,"(0.0, 0.0, 0.0, 0.0, 0.0, 0.0, 0.0, 0.0, 0.0)",0.0,0.0,0.0,"(0.0, 0.0, 0.0, 0.0, 0.0, 0.0, 0.0, 0.0, 0.0)"
2018/12/16/17:23:04.104872,109454,1545002584,104703903,imu_link,-0.0428608544883,-0.0334093956677,0.693566633604,0.718339811082,"(0.02, 0.0, 0.0, 0.0, 0.02, 0.0, 0.0, 0.0, 0.02)",0.0,0.0,0.0,"(0.0, 0.0, 0.0, 0.0, 0.0, 0.0, 0.0, 0.0, 0.0)",0.0,0.0,0.0,"(0.0, 0.0, 0.0, 0.0, 0.0, 0.0, 0.0, 0.0, 0.0)"
2018/12/16/17:23:04.114890,109455,1545002584,114643096,imu_link,-0.0427921825735,-0.0333905140561,0.693593769163,0.718318582566,"(0.02, 0.0, 0.0, 0.0, 0.02, 0.0, 0.0, 0.0, 0.02)",0.0,0.0,0.0,"(0.0, 0.0, 0.0, 0.0, 0.0, 0.0, 0.0, 0.0, 0.0)",0.0,0.0,0.0,"(0.0, 0.0, 0.0, 0.0, 0.0, 0.0, 0.0, 0.0, 0.0)"
2018/12/16/17:23:04.124937,109456,1545002584,124690055,imu_link,-0.0427829272258,-0.0333579317545,0.693599658604,0.71831496094,"(0.02, 0.0, 0.0, 0.0, 0.02, 0.0, 0.0, 0.0, 0.02)",0.0,0.0,0.0,"(0.0, 0.0, 0.0, 0.0, 0.0, 0.0, 0.0, 0.0, 0.0)",0.0,0.0,0.0,"(0.0, 0.0, 0.0, 0.0, 0.0, 0.0, 0.0, 0.0, 0.0)"
2018/12/16/17:23:04.134874,109457,1545002584,134603023,imu_link,-0.0426980332424,-0.0333407489211,0.693609344203,0.718311457554,"(0.02, 0.0, 0.0, 0.0, 0.02, 0.0, 0.0, 0.0, 0.02)",0.0,0.0,0.0,"(0.0, 0.0, 0.0, 0.0, 0.0, 0.0, 0.0, 0.0, 0.0)",0.0,0.0,0.0,"(0.0, 0.0, 0.0, 0.0, 0.0, 0.0, 0.0, 0.0, 0.0)"
2018/12/16/17:23:04.144790,109458,1545002584,144584894,imu_link,-0.042662784447,-0.0332870422141,0.693640512646,0.718285945052,"(0.02, 0.0, 0.0, 0.0, 0.02, 0.0, 0.0, 0.0, 0.02)",0.0,0.0,0.0,"(0.0, 0.0, 0.0, 0.0, 0.0, 0.0, 0.0, 0.0, 0.0)",0.0,0.0,0.0,"(0.0, 0.0, 0.0, 0.0, 0.0, 0.0, 0.0, 0.0, 0.0)"
2018/12/16/17:23:04.155282,109459,1545002584,154999971,imu_link,-0.0426673611083,-0.0332669727249,0.693661863359,0.718265984258,"(0.02, 0.0, 0.0, 0.0, 0.02, 0.0, 0.0, 0.0, 0.02)",0.0,0.0,0.0,"(0.0, 0.0, 0.0, 0.0, 0.0, 0.0, 0.0, 0.0, 0.0)",0.0,0.0,0.0,"(0.0, 0.0, 0.0, 0.0, 0.0, 0.0, 0.0, 0.0, 0.0)"
2018/12/16/17:23:04.164840,109460,1545002584,164649009,imu_link,-0.0427050156503,-0.033292296446,0.693664151715,0.718260363142,"(0.02, 0.0, 0.0, 0.0, 0.02, 0.0, 0.0, 0.0, 0.02)",0.0,0.0,0.0,"(0.0, 0.0, 0.0, 0.0, 0.0, 0.0, 0.0, 0.0, 0.0)",0.0,0.0,0.0,"(0.0, 0.0, 0.0, 0.0, 0.0, 0.0, 0.0, 0.0, 0.0)"
2018/12/16/17:23:04.175575,109461,1545002584,175354003,imu_link,-0.0427119201061,-0.0333263292281,0.693666348427,0.718256252824,"(0.02, 0.0, 0.0, 0.0, 0.02, 0.0, 0.0, 0.0, 0.02)",0.0,0.0,0.0,"(0.0, 0.0, 0.0, 0.0, 0.0, 0.0, 0.0, 0.0, 0.0)",0.0,0.0,0.0,"(0.0, 0.0, 0.0, 0.0, 0.0, 0.0, 0.0, 0.0, 0.0)"
2018/12/16/17:23:04.184855,109462,1545002584,184617996,imu_link,-0.0426824197044,-0.03334344567,0.693663310256,0.718260146245,"(0.02, 0.0, 0.0, 0.0, 0.02, 0.0, 0.0, 0.0, 0.02)",0.0,0.0,0.0,"(0.0, 0.0, 0.0, 0.0, 0.0, 0.0, 0.0, 0.0, 0.0)",0.0,0.0,0.0,"(0.0, 0.0, 0.0, 0.0, 0.0, 0.0, 0.0, 0.0, 0.0)"
2018/12/16/17:23:04.194735,109463,1545002584,194560050,imu_link,-0.0426727965892,-0.0333716704217,0.693654991097,0.718267441397,"(0.02, 0.0, 0.0, 0.0, 0.02, 0.0, 0.0, 0.0, 0.02)",0.0,0.0,0.0,"(0.0, 0.0, 0.0, 0.0, 0.0, 0.0, 0.0, 0.0, 0.0)",0.0,0.0,0.0,"(0.0, 0.0, 0.0, 0.0, 0.0, 0.0, 0.0, 0.0, 0.0)"
2018/12/16/17:23:04.204955,109464,1545002584,204766035,imu_link,-0.0426786707552,-0.0334473394583,0.693653202503,0.718265300013,"(0.02, 0.0, 0.0, 0.0, 0.02, 0.0, 0.0, 0.0, 0.02)",0.0,0.0,0.0,"(0.0, 0.0, 0.0, 0.0, 0.0, 0.0, 0.0, 0.0, 0.0)",0.0,0.0,0.0,"(0.0, 0.0, 0.0, 0.0, 0.0, 0.0, 0.0, 0.0, 0.0)"
2018/12/16/17:23:04.214712,109465,1545002584,214567899,imu_link,-0.0425945386311,-0.033560070894,0.693667189645,0.718251527621,"(0.02, 0.0, 0.0, 0.0, 0.02, 0.0, 0.0, 0.0, 0.02)",0.0,0.0,0.0,"(0.0, 0.0, 0.0, 0.0, 0.0, 0.0, 0.0, 0.0, 0.0)",0.0,0.0,0.0,"(0.0, 0.0, 0.0, 0.0, 0.0, 0.0, 0.0, 0.0, 0.0)"
2018/12/16/17:23:04.224777,109466,1545002584,224608898,imu_link,-0.0425954230388,-0.0336028476799,0.693686068126,0.718231242325,"(0.02, 0.0, 0.0, 0.0, 0.02, 0.0, 0.0, 0.0, 0.02)",0.0,0.0,0.0,"(0.0, 0.0, 0.0, 0.0, 0.0, 0.0, 0.0, 0.0, 0.0)",0.0,0.0,0.0,"(0.0, 0.0, 0.0, 0.0, 0.0, 0.0, 0.0, 0.0, 0.0)"
2018/12/16/17:23:04.234907,109467,1545002584,234608888,imu_link,-0.0426140213974,-0.0335949273377,0.693683675361,0.718232820591,"(0.02, 0.0, 0.0, 0.0, 0.02, 0.0, 0.0, 0.0, 0.02)",0.0,0.0,0.0,"(0.0, 0.0, 0.0, 0.0, 0.0, 0.0, 0.0, 0.0, 0.0)",0.0,0.0,0.0,"(0.0, 0.0, 0.0, 0.0, 0.0, 0.0, 0.0, 0.0, 0.0)"
2018/12/16/17:23:04.245144,109468,1545002584,244971036,imu_link,-0.0425327355595,-0.0335651764797,0.69370030826,0.718222965139,"(0.02, 0.0, 0.0, 0.0, 0.02, 0.0, 0.0, 0.0, 0.02)",0.0,0.0,0.0,"(0.0, 0.0, 0.0, 0.0, 0.0, 0.0, 0.0, 0.0, 0.0)",0.0,0.0,0.0,"(0.0, 0.0, 0.0, 0.0, 0.0, 0.0, 0.0, 0.0, 0.0)"
2018/12/16/17:23:04.254965,109469,1545002584,254683017,imu_link,-0.0424785058947,-0.0335778040714,0.693722799108,0.718203860758,"(0.02, 0.0, 0.0, 0.0, 0.02, 0.0, 0.0, 0.0, 0.02)",0.0,0.0,0.0,"(0.0, 0.0, 0.0, 0.0, 0.0, 0.0, 0.0, 0.0, 0.0)",0.0,0.0,0.0,"(0.0, 0.0, 0.0, 0.0, 0.0, 0.0, 0.0, 0.0, 0.0)"
2018/12/16/17:23:04.264960,109470,1545002584,264746904,imu_link,-0.0424633073095,-0.0336082151163,0.693725489771,0.718200738131,"(0.02, 0.0, 0.0, 0.0, 0.02, 0.0, 0.0, 0.0, 0.02)",0.0,0.0,0.0,"(0.0, 0.0, 0.0, 0.0, 0.0, 0.0, 0.0, 0.0, 0.0)",0.0,0.0,0.0,"(0.0, 0.0, 0.0, 0.0, 0.0, 0.0, 0.0, 0.0, 0.0)"
2018/12/16/17:23:04.275177,109471,1545002584,274873018,imu_link,-0.0424194731111,-0.033621484837,0.693750683367,0.718178371567,"(0.02, 0.0, 0.0, 0.0, 0.02, 0.0, 0.0, 0.0, 0.02)",0.0,0.0,0.0,"(0.0, 0.0, 0.0, 0.0, 0.0, 0.0, 0.0, 0.0, 0.0)",0.0,0.0,0.0,"(0.0, 0.0, 0.0, 0.0, 0.0, 0.0, 0.0, 0.0, 0.0)"
2018/12/16/17:23:04.285043,109472,1545002584,284813880,imu_link,-0.0423852210567,-0.0336494209195,0.693763799055,0.718166415692,"(0.02, 0.0, 0.0, 0.0, 0.02, 0.0, 0.0, 0.0, 0.02)",0.0,0.0,0.0,"(0.0, 0.0, 0.0, 0.0, 0.0, 0.0, 0.0, 0.0, 0.0)",0.0,0.0,0.0,"(0.0, 0.0, 0.0, 0.0, 0.0, 0.0, 0.0, 0.0, 0.0)"
2018/12/16/17:23:04.294914,109473,1545002584,294644117,imu_link,-0.0423443651868,-0.03372670691,0.693776279922,0.718153143414,"(0.02, 0.0, 0.0, 0.0, 0.02, 0.0, 0.0, 0.0, 0.02)",0.0,0.0,0.0,"(0.0, 0.0, 0.0, 0.0, 0.0, 0.0, 0.0, 0.0, 0.0)",0.0,0.0,0.0,"(0.0, 0.0, 0.0, 0.0, 0.0, 0.0, 0.0, 0.0, 0.0)"
2018/12/16/17:23:04.304858,109474,1545002584,304617881,imu_link,-0.0422967832178,-0.0337822560981,0.693796575037,0.718133729726,"(0.02, 0.0, 0.0, 0.0, 0.02, 0.0, 0.0, 0.0, 0.02)",0.0,0.0,0.0,"(0.0, 0.0, 0.0, 0.0, 0.0, 0.0, 0.0, 0.0, 0.0)",0.0,0.0,0.0,"(0.0, 0.0, 0.0, 0.0, 0.0, 0.0, 0.0, 0.0, 0.0)"
2018/12/16/17:23:04.314876,109475,1545002584,314611911,imu_link,-0.0423076050029,-0.0337989203382,0.693843136123,0.718087321986,"(0.02, 0.0, 0.0, 0.0, 0.02, 0.0, 0.0, 0.0, 0.02)",0.0,0.0,0.0,"(0.0, 0.0, 0.0, 0.0, 0.0, 0.0, 0.0, 0.0, 0.0)",0.0,0.0,0.0,"(0.0, 0.0, 0.0, 0.0, 0.0, 0.0, 0.0, 0.0, 0.0)"
2018/12/16/17:23:04.324950,109476,1545002584,324726104,imu_link,-0.0422811605655,-0.0338356337682,0.693863918434,0.718067069322,"(0.02, 0.0, 0.0, 0.0, 0.02, 0.0, 0.0, 0.0, 0.02)",0.0,0.0,0.0,"(0.0, 0.0, 0.0, 0.0, 0.0, 0.0, 0.0, 0.0, 0.0)",0.0,0.0,0.0,"(0.0, 0.0, 0.0, 0.0, 0.0, 0.0, 0.0, 0.0, 0.0)"
2018/12/16/17:23:04.334956,109477,1545002584,334628105,imu_link,-0.0422419614631,-0.03390814747,0.693899961552,0.718031125778,"(0.02, 0.0, 0.0, 0.0, 0.02, 0.0, 0.0, 0.0, 0.02)",0.0,0.0,0.0,"(0.0, 0.0, 0.0, 0.0, 0.0, 0.0, 0.0, 0.0, 0.0)",0.0,0.0,0.0,"(0.0, 0.0, 0.0, 0.0, 0.0, 0.0, 0.0, 0.0, 0.0)"
2018/12/16/17:23:04.344906,109478,1545002584,344649076,imu_link,-0.0422567215999,-0.0339004712249,0.693941139873,0.717990823007,"(0.02, 0.0, 0.0, 0.0, 0.02, 0.0, 0.0, 0.0, 0.02)",0.0,0.0,0.0,"(0.0, 0.0, 0.0, 0.0, 0.0, 0.0, 0.0, 0.0, 0.0)",0.0,0.0,0.0,"(0.0, 0.0, 0.0, 0.0, 0.0, 0.0, 0.0, 0.0, 0.0)"
2018/12/16/17:23:04.355292,109479,1545002584,354666948,imu_link,-0.0422142714847,-0.0339349621916,0.693980094022,0.717954039424,"(0.02, 0.0, 0.0, 0.0, 0.02, 0.0, 0.0, 0.0, 0.02)",0.0,0.0,0.0,"(0.0, 0.0, 0.0, 0.0, 0.0, 0.0, 0.0, 0.0, 0.0)",0.0,0.0,0.0,"(0.0, 0.0, 0.0, 0.0, 0.0, 0.0, 0.0, 0.0, 0.0)"
2018/12/16/17:23:04.364832,109480,1545002584,364624023,imu_link,-0.0421577814166,-0.0339533041549,0.694016144213,0.717921643479,"(0.02, 0.0, 0.0, 0.0, 0.02, 0.0, 0.0, 0.0, 0.02)",0.0,0.0,0.0,"(0.0, 0.0, 0.0, 0.0, 0.0, 0.0, 0.0, 0.0, 0.0)",0.0,0.0,0.0,"(0.0, 0.0, 0.0, 0.0, 0.0, 0.0, 0.0, 0.0, 0.0)"
2018/12/16/17:23:04.376474,109481,1545002584,376238107,imu_link,-0.0421443687553,-0.0339506944145,0.694064732532,0.717875580854,"(0.02, 0.0, 0.0, 0.0, 0.02, 0.0, 0.0, 0.0, 0.02)",0.0,0.0,0.0,"(0.0, 0.0, 0.0, 0.0, 0.0, 0.0, 0.0, 0.0, 0.0)",0.0,0.0,0.0,"(0.0, 0.0, 0.0, 0.0, 0.0, 0.0, 0.0, 0.0, 0.0)"
2018/12/16/17:23:04.385080,109482,1545002584,384661912,imu_link,-0.0421302891085,-0.0339457606013,0.694103653748,0.717839008365,"(0.02, 0.0, 0.0, 0.0, 0.02, 0.0, 0.0, 0.0, 0.02)",0.0,0.0,0.0,"(0.0, 0.0, 0.0, 0.0, 0.0, 0.0, 0.0, 0.0, 0.0)",0.0,0.0,0.0,"(0.0, 0.0, 0.0, 0.0, 0.0, 0.0, 0.0, 0.0, 0.0)"
2018/12/16/17:23:04.394934,109483,1545002584,394602060,imu_link,-0.041977439789,-0.0340081716829,0.694167232537,0.717783527311,"(0.02, 0.0, 0.0, 0.0, 0.02, 0.0, 0.0, 0.0, 0.02)",0.0,0.0,0.0,"(0.0, 0.0, 0.0, 0.0, 0.0, 0.0, 0.0, 0.0, 0.0)",0.0,0.0,0.0,"(0.0, 0.0, 0.0, 0.0, 0.0, 0.0, 0.0, 0.0, 0.0)"
2018/12/16/17:23:04.404891,109484,1545002584,404664993,imu_link,-0.0419190372883,-0.0340315667088,0.694201777691,0.717752421543,"(0.02, 0.0, 0.0, 0.0, 0.02, 0.0, 0.0, 0.0, 0.02)",0.0,0.0,0.0,"(0.0, 0.0, 0.0, 0.0, 0.0, 0.0, 0.0, 0.0, 0.0)",0.0,0.0,0.0,"(0.0, 0.0, 0.0, 0.0, 0.0, 0.0, 0.0, 0.0, 0.0)"
2018/12/16/17:23:04.414866,109485,1545002584,414582014,imu_link,-0.0418826863414,-0.0340344144022,0.694232494888,0.7177246981,"(0.02, 0.0, 0.0, 0.0, 0.02, 0.0, 0.0, 0.0, 0.02)",0.0,0.0,0.0,"(0.0, 0.0, 0.0, 0.0, 0.0, 0.0, 0.0, 0.0, 0.0)",0.0,0.0,0.0,"(0.0, 0.0, 0.0, 0.0, 0.0, 0.0, 0.0, 0.0, 0.0)"
2018/12/16/17:23:04.424970,109486,1545002584,424746990,imu_link,-0.0418135740039,-0.034042569092,0.694264526093,0.717697357057,"(0.02, 0.0, 0.0, 0.0, 0.02, 0.0, 0.0, 0.0, 0.02)",0.0,0.0,0.0,"(0.0, 0.0, 0.0, 0.0, 0.0, 0.0, 0.0, 0.0, 0.0)",0.0,0.0,0.0,"(0.0, 0.0, 0.0, 0.0, 0.0, 0.0, 0.0, 0.0, 0.0)"
2018/12/16/17:23:04.434994,109487,1545002584,434681892,imu_link,-0.0417704812758,-0.0340382649289,0.69429597493,0.717669647269,"(0.02, 0.0, 0.0, 0.0, 0.02, 0.0, 0.0, 0.0, 0.02)",0.0,0.0,0.0,"(0.0, 0.0, 0.0, 0.0, 0.0, 0.0, 0.0, 0.0, 0.0)",0.0,0.0,0.0,"(0.0, 0.0, 0.0, 0.0, 0.0, 0.0, 0.0, 0.0, 0.0)"
2018/12/16/17:23:04.444864,109488,1545002584,444667100,imu_link,-0.0417223371066,-0.0340385821494,0.694326140247,0.717643248753,"(0.02, 0.0, 0.0, 0.0, 0.02, 0.0, 0.0, 0.0, 0.02)",0.0,0.0,0.0,"(0.0, 0.0, 0.0, 0.0, 0.0, 0.0, 0.0, 0.0, 0.0)",0.0,0.0,0.0,"(0.0, 0.0, 0.0, 0.0, 0.0, 0.0, 0.0, 0.0, 0.0)"
2018/12/16/17:23:04.454940,109489,1545002584,454704999,imu_link,-0.041661567694,-0.0340378208586,0.694350126569,0.717623607654,"(0.02, 0.0, 0.0, 0.0, 0.02, 0.0, 0.0, 0.0, 0.02)",0.0,0.0,0.0,"(0.0, 0.0, 0.0, 0.0, 0.0, 0.0, 0.0, 0.0, 0.0)",0.0,0.0,0.0,"(0.0, 0.0, 0.0, 0.0, 0.0, 0.0, 0.0, 0.0, 0.0)"
2018/12/16/17:23:04.464889,109490,1545002584,464641094,imu_link,-0.0416471878519,-0.0340186532939,0.694372197122,0.717603995833,"(0.02, 0.0, 0.0, 0.0, 0.02, 0.0, 0.0, 0.0, 0.02)",0.0,0.0,0.0,"(0.0, 0.0, 0.0, 0.0, 0.0, 0.0, 0.0, 0.0, 0.0)",0.0,0.0,0.0,"(0.0, 0.0, 0.0, 0.0, 0.0, 0.0, 0.0, 0.0, 0.0)"
2018/12/16/17:23:04.474957,109491,1545002584,474700927,imu_link,-0.0416091787144,-0.0340544267904,0.69440210293,0.717575565156,"(0.02, 0.0, 0.0, 0.0, 0.02, 0.0, 0.0, 0.0, 0.02)",0.0,0.0,0.0,"(0.0, 0.0, 0.0, 0.0, 0.0, 0.0, 0.0, 0.0, 0.0)",0.0,0.0,0.0,"(0.0, 0.0, 0.0, 0.0, 0.0, 0.0, 0.0, 0.0, 0.0)"
2018/12/16/17:23:04.484970,109492,1545002584,484658002,imu_link,-0.0415540527041,-0.0341017822655,0.69441643688,0.717562639315,"(0.02, 0.0, 0.0, 0.0, 0.02, 0.0, 0.0, 0.0, 0.02)",0.0,0.0,0.0,"(0.0, 0.0, 0.0, 0.0, 0.0, 0.0, 0.0, 0.0, 0.0)",0.0,0.0,0.0,"(0.0, 0.0, 0.0, 0.0, 0.0, 0.0, 0.0, 0.0, 0.0)"
2018/12/16/17:23:04.494854,109493,1545002584,494596958,imu_link,-0.0415131875825,-0.034160601379,0.694430156224,0.717548929828,"(0.02, 0.0, 0.0, 0.0, 0.02, 0.0, 0.0, 0.0, 0.02)",0.0,0.0,0.0,"(0.0, 0.0, 0.0, 0.0, 0.0, 0.0, 0.0, 0.0, 0.0)",0.0,0.0,0.0,"(0.0, 0.0, 0.0, 0.0, 0.0, 0.0, 0.0, 0.0, 0.0)"
2018/12/16/17:23:04.504914,109494,1545002584,504662990,imu_link,-0.0415103576093,-0.0342129698458,0.69444505715,0.717532177331,"(0.02, 0.0, 0.0, 0.0, 0.02, 0.0, 0.0, 0.0, 0.02)",0.0,0.0,0.0,"(0.0, 0.0, 0.0, 0.0, 0.0, 0.0, 0.0, 0.0, 0.0)",0.0,0.0,0.0,"(0.0, 0.0, 0.0, 0.0, 0.0, 0.0, 0.0, 0.0, 0.0)"
2018/12/16/17:23:04.514848,109495,1545002584,514641046,imu_link,-0.0415080198734,-0.0342970370842,0.694452491833,0.717521103606,"(0.02, 0.0, 0.0, 0.0, 0.02, 0.0, 0.0, 0.0, 0.02)",0.0,0.0,0.0,"(0.0, 0.0, 0.0, 0.0, 0.0, 0.0, 0.0, 0.0, 0.0)",0.0,0.0,0.0,"(0.0, 0.0, 0.0, 0.0, 0.0, 0.0, 0.0, 0.0, 0.0)"
2018/12/16/17:23:04.524860,109496,1545002584,524672031,imu_link,-0.0415092741537,-0.0343755959538,0.694473508922,0.717496929587,"(0.02, 0.0, 0.0, 0.0, 0.02, 0.0, 0.0, 0.0, 0.02)",0.0,0.0,0.0,"(0.0, 0.0, 0.0, 0.0, 0.0, 0.0, 0.0, 0.0, 0.0)",0.0,0.0,0.0,"(0.0, 0.0, 0.0, 0.0, 0.0, 0.0, 0.0, 0.0, 0.0)"
2018/12/16/17:23:04.535034,109497,1545002584,534784078,imu_link,-0.0414863262185,-0.0343994190914,0.694485114053,0.717485882134,"(0.02, 0.0, 0.0, 0.0, 0.02, 0.0, 0.0, 0.0, 0.02)",0.0,0.0,0.0,"(0.0, 0.0, 0.0, 0.0, 0.0, 0.0, 0.0, 0.0, 0.0)",0.0,0.0,0.0,"(0.0, 0.0, 0.0, 0.0, 0.0, 0.0, 0.0, 0.0, 0.0)"
2018/12/16/17:23:04.544883,109498,1545002584,544660091,imu_link,-0.041485456169,-0.0344397447707,0.69449422405,0.717475179827,"(0.02, 0.0, 0.0, 0.0, 0.02, 0.0, 0.0, 0.0, 0.02)",0.0,0.0,0.0,"(0.0, 0.0, 0.0, 0.0, 0.0, 0.0, 0.0, 0.0, 0.0)",0.0,0.0,0.0,"(0.0, 0.0, 0.0, 0.0, 0.0, 0.0, 0.0, 0.0, 0.0)"
2018/12/16/17:23:04.555172,109499,1545002584,554939031,imu_link,-0.0414766488063,-0.0344858441498,0.694492791162,0.717474861707,"(0.02, 0.0, 0.0, 0.0, 0.02, 0.0, 0.0, 0.0, 0.02)",0.0,0.0,0.0,"(0.0, 0.0, 0.0, 0.0, 0.0, 0.0, 0.0, 0.0, 0.0)",0.0,0.0,0.0,"(0.0, 0.0, 0.0, 0.0, 0.0, 0.0, 0.0, 0.0, 0.0)"
2018/12/16/17:23:04.564933,109500,1545002584,564691066,imu_link,-0.0414677781421,-0.0345201804246,0.694503870359,0.71746299875,"(0.02, 0.0, 0.0, 0.0, 0.02, 0.0, 0.0, 0.0, 0.02)",0.0,0.0,0.0,"(0.0, 0.0, 0.0, 0.0, 0.0, 0.0, 0.0, 0.0, 0.0)",0.0,0.0,0.0,"(0.0, 0.0, 0.0, 0.0, 0.0, 0.0, 0.0, 0.0, 0.0)"
2018/12/16/17:23:04.575331,109501,1545002584,574666976,imu_link,-0.0414629479165,-0.034556248872,0.694503651955,0.717461753012,"(0.02, 0.0, 0.0, 0.0, 0.02, 0.0, 0.0, 0.0, 0.02)",0.0,0.0,0.0,"(0.0, 0.0, 0.0, 0.0, 0.0, 0.0, 0.0, 0.0, 0.0)",0.0,0.0,0.0,"(0.0, 0.0, 0.0, 0.0, 0.0, 0.0, 0.0, 0.0, 0.0)"
2018/12/16/17:23:04.585052,109502,1545002584,584789037,imu_link,-0.0414768405057,-0.0345743342685,0.694500691253,0.71746294466,"(0.02, 0.0, 0.0, 0.0, 0.02, 0.0, 0.0, 0.0, 0.02)",0.0,0.0,0.0,"(0.0, 0.0, 0.0, 0.0, 0.0, 0.0, 0.0, 0.0, 0.0)",0.0,0.0,0.0,"(0.0, 0.0, 0.0, 0.0, 0.0, 0.0, 0.0, 0.0, 0.0)"
2018/12/16/17:23:04.594834,109503,1545002584,594587087,imu_link,-0.0414767793726,-0.0345990582397,0.694505540672,0.717457062073,"(0.02, 0.0, 0.0, 0.0, 0.02, 0.0, 0.0, 0.0, 0.02)",0.0,0.0,0.0,"(0.0, 0.0, 0.0, 0.0, 0.0, 0.0, 0.0, 0.0, 0.0)",0.0,0.0,0.0,"(0.0, 0.0, 0.0, 0.0, 0.0, 0.0, 0.0, 0.0, 0.0)"
2018/12/16/17:23:04.605283,109504,1545002584,605073928,imu_link,-0.0414980055107,-0.0346233459643,0.694500305655,0.717459730506,"(0.02, 0.0, 0.0, 0.0, 0.02, 0.0, 0.0, 0.0, 0.02)",0.0,0.0,0.0,"(0.0, 0.0, 0.0, 0.0, 0.0, 0.0, 0.0, 0.0, 0.0)",0.0,0.0,0.0,"(0.0, 0.0, 0.0, 0.0, 0.0, 0.0, 0.0, 0.0, 0.0)"
2018/12/16/17:23:04.614872,109505,1545002584,614636898,imu_link,-0.0415102277807,-0.0346551206772,0.694478070223,0.717479012641,"(0.02, 0.0, 0.0, 0.0, 0.02, 0.0, 0.0, 0.0, 0.02)",0.0,0.0,0.0,"(0.0, 0.0, 0.0, 0.0, 0.0, 0.0, 0.0, 0.0, 0.0)",0.0,0.0,0.0,"(0.0, 0.0, 0.0, 0.0, 0.0, 0.0, 0.0, 0.0, 0.0)"
2018/12/16/17:23:04.624968,109506,1545002584,624773979,imu_link,-0.0415106087789,-0.0346870241995,0.694475467146,0.717479968531,"(0.02, 0.0, 0.0, 0.0, 0.02, 0.0, 0.0, 0.0, 0.02)",0.0,0.0,0.0,"(0.0, 0.0, 0.0, 0.0, 0.0, 0.0, 0.0, 0.0, 0.0)",0.0,0.0,0.0,"(0.0, 0.0, 0.0, 0.0, 0.0, 0.0, 0.0, 0.0, 0.0)"
2018/12/16/17:23:04.635084,109507,1545002584,634744882,imu_link,-0.0415424391427,-0.0347038100972,0.694470127072,0.717482483354,"(0.02, 0.0, 0.0, 0.0, 0.02, 0.0, 0.0, 0.0, 0.02)",0.0,0.0,0.0,"(0.0, 0.0, 0.0, 0.0, 0.0, 0.0, 0.0, 0.0, 0.0)",0.0,0.0,0.0,"(0.0, 0.0, 0.0, 0.0, 0.0, 0.0, 0.0, 0.0, 0.0)"
2018/12/16/17:23:04.646589,109508,1545002584,646277904,imu_link,-0.0414847340272,-0.0347082906381,0.69450726253,0.717449659346,"(0.02, 0.0, 0.0, 0.0, 0.02, 0.0, 0.0, 0.0, 0.02)",0.0,0.0,0.0,"(0.0, 0.0, 0.0, 0.0, 0.0, 0.0, 0.0, 0.0, 0.0)",0.0,0.0,0.0,"(0.0, 0.0, 0.0, 0.0, 0.0, 0.0, 0.0, 0.0, 0.0)"
2018/12/16/17:23:04.655249,109509,1545002584,654745101,imu_link,-0.0414767031502,-0.0347762775254,0.694501647808,0.717452266572,"(0.02, 0.0, 0.0, 0.0, 0.02, 0.0, 0.0, 0.0, 0.02)",0.0,0.0,0.0,"(0.0, 0.0, 0.0, 0.0, 0.0, 0.0, 0.0, 0.0, 0.0)",0.0,0.0,0.0,"(0.0, 0.0, 0.0, 0.0, 0.0, 0.0, 0.0, 0.0, 0.0)"
2018/12/16/17:23:04.664959,109510,1545002584,664702892,imu_link,-0.0414927095586,-0.0347808227919,0.694485468685,0.717466781952,"(0.02, 0.0, 0.0, 0.0, 0.02, 0.0, 0.0, 0.0, 0.02)",0.0,0.0,0.0,"(0.0, 0.0, 0.0, 0.0, 0.0, 0.0, 0.0, 0.0, 0.0)",0.0,0.0,0.0,"(0.0, 0.0, 0.0, 0.0, 0.0, 0.0, 0.0, 0.0, 0.0)"
2018/12/16/17:23:04.675112,109511,1545002584,674774885,imu_link,-0.0414967834446,-0.0348257040973,0.694463667637,0.717485471372,"(0.02, 0.0, 0.0, 0.0, 0.02, 0.0, 0.0, 0.0, 0.02)",0.0,0.0,0.0,"(0.0, 0.0, 0.0, 0.0, 0.0, 0.0, 0.0, 0.0, 0.0)",0.0,0.0,0.0,"(0.0, 0.0, 0.0, 0.0, 0.0, 0.0, 0.0, 0.0, 0.0)"
2018/12/16/17:23:04.685143,109512,1545002584,684941053,imu_link,-0.0415048969499,-0.0348688864563,0.694451626889,0.717494559002,"(0.02, 0.0, 0.0, 0.0, 0.02, 0.0, 0.0, 0.0, 0.02)",0.0,0.0,0.0,"(0.0, 0.0, 0.0, 0.0, 0.0, 0.0, 0.0, 0.0, 0.0)",0.0,0.0,0.0,"(0.0, 0.0, 0.0, 0.0, 0.0, 0.0, 0.0, 0.0, 0.0)"
2018/12/16/17:23:04.694988,109513,1545002584,694719076,imu_link,-0.0415029113974,-0.0349121822192,0.694445660886,0.717498342824,"(0.02, 0.0, 0.0, 0.0, 0.02, 0.0, 0.0, 0.0, 0.02)",0.0,0.0,0.0,"(0.0, 0.0, 0.0, 0.0, 0.0, 0.0, 0.0, 0.0, 0.0)",0.0,0.0,0.0,"(0.0, 0.0, 0.0, 0.0, 0.0, 0.0, 0.0, 0.0, 0.0)"
2018/12/16/17:23:04.704965,109514,1545002584,704710960,imu_link,-0.0415215942223,-0.0349229948958,0.694417473588,0.717524016335,"(0.02, 0.0, 0.0, 0.0, 0.02, 0.0, 0.0, 0.0, 0.02)",0.0,0.0,0.0,"(0.0, 0.0, 0.0, 0.0, 0.0, 0.0, 0.0, 0.0, 0.0)",0.0,0.0,0.0,"(0.0, 0.0, 0.0, 0.0, 0.0, 0.0, 0.0, 0.0, 0.0)"
2018/12/16/17:23:04.715117,109515,1545002584,714611053,imu_link,-0.0415169066822,-0.0349808819806,0.694391697557,0.717546412937,"(0.02, 0.0, 0.0, 0.0, 0.02, 0.0, 0.0, 0.0, 0.02)",0.0,0.0,0.0,"(0.0, 0.0, 0.0, 0.0, 0.0, 0.0, 0.0, 0.0, 0.0)",0.0,0.0,0.0,"(0.0, 0.0, 0.0, 0.0, 0.0, 0.0, 0.0, 0.0, 0.0)"
2018/12/16/17:23:04.725001,109516,1545002584,724735975,imu_link,-0.0415136873864,-0.0350053228201,0.694374171575,0.717562367312,"(0.02, 0.0, 0.0, 0.0, 0.02, 0.0, 0.0, 0.0, 0.02)",0.0,0.0,0.0,"(0.0, 0.0, 0.0, 0.0, 0.0, 0.0, 0.0, 0.0, 0.0)",0.0,0.0,0.0,"(0.0, 0.0, 0.0, 0.0, 0.0, 0.0, 0.0, 0.0, 0.0)"
2018/12/16/17:23:04.735465,109517,1545002584,734647035,imu_link,-0.0414858091026,-0.0350527203489,0.694356006946,0.717579243051,"(0.02, 0.0, 0.0, 0.0, 0.02, 0.0, 0.0, 0.0, 0.02)",0.0,0.0,0.0,"(0.0, 0.0, 0.0, 0.0, 0.0, 0.0, 0.0, 0.0, 0.0)",0.0,0.0,0.0,"(0.0, 0.0, 0.0, 0.0, 0.0, 0.0, 0.0, 0.0, 0.0)"
2018/12/16/17:23:04.745018,109518,1545002584,744822978,imu_link,-0.0415032566296,-0.035083824651,0.694334021771,0.71759798714,"(0.02, 0.0, 0.0, 0.0, 0.02, 0.0, 0.0, 0.0, 0.02)",0.0,0.0,0.0,"(0.0, 0.0, 0.0, 0.0, 0.0, 0.0, 0.0, 0.0, 0.0)",0.0,0.0,0.0,"(0.0, 0.0, 0.0, 0.0, 0.0, 0.0, 0.0, 0.0, 0.0)"
2018/12/16/17:23:04.754993,109519,1545002584,754715919,imu_link,-0.0414718400072,-0.0351292997169,0.69430943106,0.717621371427,"(0.02, 0.0, 0.0, 0.0, 0.02, 0.0, 0.0, 0.0, 0.02)",0.0,0.0,0.0,"(0.0, 0.0, 0.0, 0.0, 0.0, 0.0, 0.0, 0.0, 0.0)",0.0,0.0,0.0,"(0.0, 0.0, 0.0, 0.0, 0.0, 0.0, 0.0, 0.0, 0.0)"
2018/12/16/17:23:04.764962,109520,1545002584,764775037,imu_link,-0.0414212508184,-0.0351879593922,0.694300553341,0.717630008517,"(0.02, 0.0, 0.0, 0.0, 0.02, 0.0, 0.0, 0.0, 0.02)",0.0,0.0,0.0,"(0.0, 0.0, 0.0, 0.0, 0.0, 0.0, 0.0, 0.0, 0.0)",0.0,0.0,0.0,"(0.0, 0.0, 0.0, 0.0, 0.0, 0.0, 0.0, 0.0, 0.0)"
2018/12/16/17:23:04.774951,109521,1545002584,774677991,imu_link,-0.0413843129119,-0.0351985605835,0.69426014023,0.717670716739,"(0.02, 0.0, 0.0, 0.0, 0.02, 0.0, 0.0, 0.0, 0.02)",0.0,0.0,0.0,"(0.0, 0.0, 0.0, 0.0, 0.0, 0.0, 0.0, 0.0, 0.0)",0.0,0.0,0.0,"(0.0, 0.0, 0.0, 0.0, 0.0, 0.0, 0.0, 0.0, 0.0)"
2018/12/16/17:23:04.785066,109522,1545002584,784884929,imu_link,-0.0413634642596,-0.0351907221658,0.694241606626,0.717690231595,"(0.02, 0.0, 0.0, 0.0, 0.02, 0.0, 0.0, 0.0, 0.02)",0.0,0.0,0.0,"(0.0, 0.0, 0.0, 0.0, 0.0, 0.0, 0.0, 0.0, 0.0)",0.0,0.0,0.0,"(0.0, 0.0, 0.0, 0.0, 0.0, 0.0, 0.0, 0.0, 0.0)"
2018/12/16/17:23:04.794805,109523,1545002584,794608116,imu_link,-0.0413381807682,-0.035199567509,0.69421958837,0.717712552754,"(0.02, 0.0, 0.0, 0.0, 0.02, 0.0, 0.0, 0.0, 0.02)",0.0,0.0,0.0,"(0.0, 0.0, 0.0, 0.0, 0.0, 0.0, 0.0, 0.0, 0.0)",0.0,0.0,0.0,"(0.0, 0.0, 0.0, 0.0, 0.0, 0.0, 0.0, 0.0, 0.0)"
2018/12/16/17:23:04.804932,109524,1545002584,804704904,imu_link,-0.0412709578878,-0.0352486122542,0.694187851558,0.717744710965,"(0.02, 0.0, 0.0, 0.0, 0.02, 0.0, 0.0, 0.0, 0.02)",0.0,0.0,0.0,"(0.0, 0.0, 0.0, 0.0, 0.0, 0.0, 0.0, 0.0, 0.0)",0.0,0.0,0.0,"(0.0, 0.0, 0.0, 0.0, 0.0, 0.0, 0.0, 0.0, 0.0)"
2018/12/16/17:23:04.814919,109525,1545002584,814646005,imu_link,-0.0412635719259,-0.0352292121591,0.694168324842,0.717764973392,"(0.02, 0.0, 0.0, 0.0, 0.02, 0.0, 0.0, 0.0, 0.02)",0.0,0.0,0.0,"(0.0, 0.0, 0.0, 0.0, 0.0, 0.0, 0.0, 0.0, 0.0)",0.0,0.0,0.0,"(0.0, 0.0, 0.0, 0.0, 0.0, 0.0, 0.0, 0.0, 0.0)"
2018/12/16/17:23:04.825097,109526,1545002584,824868917,imu_link,-0.0412692123571,-0.0352179123455,0.694138800745,0.717793755937,"(0.02, 0.0, 0.0, 0.0, 0.02, 0.0, 0.0, 0.0, 0.02)",0.0,0.0,0.0,"(0.0, 0.0, 0.0, 0.0, 0.0, 0.0, 0.0, 0.0, 0.0)",0.0,0.0,0.0,"(0.0, 0.0, 0.0, 0.0, 0.0, 0.0, 0.0, 0.0, 0.0)"
2018/12/16/17:23:04.835073,109527,1545002584,834777116,imu_link,-0.0412412612382,-0.0352323429066,0.694110119791,0.717822388888,"(0.02, 0.0, 0.0, 0.0, 0.02, 0.0, 0.0, 0.0, 0.02)",0.0,0.0,0.0,"(0.0, 0.0, 0.0, 0.0, 0.0, 0.0, 0.0, 0.0, 0.0)",0.0,0.0,0.0,"(0.0, 0.0, 0.0, 0.0, 0.0, 0.0, 0.0, 0.0, 0.0)"
2018/12/16/17:23:04.844935,109528,1545002584,844732999,imu_link,-0.0412317449128,-0.0352623039308,0.694084531508,0.717846206547,"(0.02, 0.0, 0.0, 0.0, 0.02, 0.0, 0.0, 0.0, 0.02)",0.0,0.0,0.0,"(0.0, 0.0, 0.0, 0.0, 0.0, 0.0, 0.0, 0.0, 0.0)",0.0,0.0,0.0,"(0.0, 0.0, 0.0, 0.0, 0.0, 0.0, 0.0, 0.0, 0.0)"
2018/12/16/17:23:04.854927,109529,1545002584,854650974,imu_link,-0.0412533112654,-0.0352103661252,0.69406493535,0.717866463867,"(0.02, 0.0, 0.0, 0.0, 0.02, 0.0, 0.0, 0.0, 0.02)",0.0,0.0,0.0,"(0.0, 0.0, 0.0, 0.0, 0.0, 0.0, 0.0, 0.0, 0.0)",0.0,0.0,0.0,"(0.0, 0.0, 0.0, 0.0, 0.0, 0.0, 0.0, 0.0, 0.0)"
2018/12/16/17:23:04.864921,109530,1545002584,864736080,imu_link,-0.0412186999199,-0.0351583675723,0.694032724237,0.717902142116,"(0.02, 0.0, 0.0, 0.0, 0.02, 0.0, 0.0, 0.0, 0.02)",0.0,0.0,0.0,"(0.0, 0.0, 0.0, 0.0, 0.0, 0.0, 0.0, 0.0, 0.0)",0.0,0.0,0.0,"(0.0, 0.0, 0.0, 0.0, 0.0, 0.0, 0.0, 0.0, 0.0)"
2018/12/16/17:23:04.875259,109531,1545002584,874701976,imu_link,-0.0412483991259,-0.0350936331278,0.694009022996,0.717926516075,"(0.02, 0.0, 0.0, 0.0, 0.02, 0.0, 0.0, 0.0, 0.02)",0.0,0.0,0.0,"(0.0, 0.0, 0.0, 0.0, 0.0, 0.0, 0.0, 0.0, 0.0)",0.0,0.0,0.0,"(0.0, 0.0, 0.0, 0.0, 0.0, 0.0, 0.0, 0.0, 0.0)"
2018/12/16/17:23:04.884974,109532,1545002584,884748935,imu_link,-0.0412780020406,-0.035016956555,0.693974653453,0.71796178148,"(0.02, 0.0, 0.0, 0.0, 0.02, 0.0, 0.0, 0.0, 0.02)",0.0,0.0,0.0,"(0.0, 0.0, 0.0, 0.0, 0.0, 0.0, 0.0, 0.0, 0.0)",0.0,0.0,0.0,"(0.0, 0.0, 0.0, 0.0, 0.0, 0.0, 0.0, 0.0, 0.0)"
2018/12/16/17:23:04.894882,109533,1545002584,894651889,imu_link,-0.0412217296934,-0.0350897258842,0.693968948599,0.717966975925,"(0.02, 0.0, 0.0, 0.0, 0.02, 0.0, 0.0, 0.0, 0.02)",0.0,0.0,0.0,"(0.0, 0.0, 0.0, 0.0, 0.0, 0.0, 0.0, 0.0, 0.0)",0.0,0.0,0.0,"(0.0, 0.0, 0.0, 0.0, 0.0, 0.0, 0.0, 0.0, 0.0)"
2018/12/16/17:23:04.905129,109534,1545002584,904896974,imu_link,-0.0412606777756,-0.0351310739026,0.693940008704,0.717990688266,"(0.02, 0.0, 0.0, 0.0, 0.02, 0.0, 0.0, 0.0, 0.02)",0.0,0.0,0.0,"(0.0, 0.0, 0.0, 0.0, 0.0, 0.0, 0.0, 0.0, 0.0)",0.0,0.0,0.0,"(0.0, 0.0, 0.0, 0.0, 0.0, 0.0, 0.0, 0.0, 0.0)"
2018/12/16/17:23:04.914862,109535,1545002584,914635896,imu_link,-0.0413448642298,-0.0351049185856,0.693928400937,0.717998343498,"(0.02, 0.0, 0.0, 0.0, 0.02, 0.0, 0.0, 0.0, 0.02)",0.0,0.0,0.0,"(0.0, 0.0, 0.0, 0.0, 0.0, 0.0, 0.0, 0.0, 0.0)",0.0,0.0,0.0,"(0.0, 0.0, 0.0, 0.0, 0.0, 0.0, 0.0, 0.0, 0.0)"
2018/12/16/17:23:04.924911,109536,1545002584,924673080,imu_link,-0.0413611361228,-0.035145533363,0.693910136862,0.718013070817,"(0.02, 0.0, 0.0, 0.0, 0.02, 0.0, 0.0, 0.0, 0.02)",0.0,0.0,0.0,"(0.0, 0.0, 0.0, 0.0, 0.0, 0.0, 0.0, 0.0, 0.0)",0.0,0.0,0.0,"(0.0, 0.0, 0.0, 0.0, 0.0, 0.0, 0.0, 0.0, 0.0)"
2018/12/16/17:23:04.934922,109537,1545002584,934659004,imu_link,-0.0414065854958,-0.0351312095555,0.693882245954,0.718038105913,"(0.02, 0.0, 0.0, 0.0, 0.02, 0.0, 0.0, 0.0, 0.02)",0.0,0.0,0.0,"(0.0, 0.0, 0.0, 0.0, 0.0, 0.0, 0.0, 0.0, 0.0)",0.0,0.0,0.0,"(0.0, 0.0, 0.0, 0.0, 0.0, 0.0, 0.0, 0.0, 0.0)"
2018/12/16/17:23:04.945119,109538,1545002584,944922924,imu_link,-0.0414954327424,-0.0350784182774,0.69385127541,0.718065485345,"(0.02, 0.0, 0.0, 0.0, 0.02, 0.0, 0.0, 0.0, 0.02)",0.0,0.0,0.0,"(0.0, 0.0, 0.0, 0.0, 0.0, 0.0, 0.0, 0.0, 0.0)",0.0,0.0,0.0,"(0.0, 0.0, 0.0, 0.0, 0.0, 0.0, 0.0, 0.0, 0.0)"
2018/12/16/17:23:04.954957,109539,1545002584,954711914,imu_link,-0.041533391605,-0.0350987980003,0.693829484913,0.718083350055,"(0.02, 0.0, 0.0, 0.0, 0.02, 0.0, 0.0, 0.0, 0.02)",0.0,0.0,0.0,"(0.0, 0.0, 0.0, 0.0, 0.0, 0.0, 0.0, 0.0, 0.0)",0.0,0.0,0.0,"(0.0, 0.0, 0.0, 0.0, 0.0, 0.0, 0.0, 0.0, 0.0)"
2018/12/16/17:23:04.964922,109540,1545002584,964690923,imu_link,-0.0415495299328,-0.0351497516662,0.693802541828,0.7181059563,"(0.02, 0.0, 0.0, 0.0, 0.02, 0.0, 0.0, 0.0, 0.02)",0.0,0.0,0.0,"(0.0, 0.0, 0.0, 0.0, 0.0, 0.0, 0.0, 0.0, 0.0)",0.0,0.0,0.0,"(0.0, 0.0, 0.0, 0.0, 0.0, 0.0, 0.0, 0.0, 0.0)"
2018/12/16/17:23:04.975240,109541,1545002584,974921941,imu_link,-0.0416049128988,-0.0351078723419,0.693782520855,0.718124141273,"(0.02, 0.0, 0.0, 0.0, 0.02, 0.0, 0.0, 0.0, 0.02)",0.0,0.0,0.0,"(0.0, 0.0, 0.0, 0.0, 0.0, 0.0, 0.0, 0.0, 0.0)",0.0,0.0,0.0,"(0.0, 0.0, 0.0, 0.0, 0.0, 0.0, 0.0, 0.0, 0.0)"
2018/12/16/17:23:04.985056,109542,1545002584,984824895,imu_link,-0.0415815304739,-0.0350897686317,0.693771160118,0.718137355837,"(0.02, 0.0, 0.0, 0.0, 0.02, 0.0, 0.0, 0.0, 0.02)",0.0,0.0,0.0,"(0.0, 0.0, 0.0, 0.0, 0.0, 0.0, 0.0, 0.0, 0.0)",0.0,0.0,0.0,"(0.0, 0.0, 0.0, 0.0, 0.0, 0.0, 0.0, 0.0, 0.0)"
2018/12/16/17:23:04.995214,109543,1545002584,994774103,imu_link,-0.0415791764171,-0.0350546271602,0.693740571691,0.7181687576,"(0.02, 0.0, 0.0, 0.0, 0.02, 0.0, 0.0, 0.0, 0.02)",0.0,0.0,0.0,"(0.0, 0.0, 0.0, 0.0, 0.0, 0.0, 0.0, 0.0, 0.0)",0.0,0.0,0.0,"(0.0, 0.0, 0.0, 0.0, 0.0, 0.0, 0.0, 0.0, 0.0)"
2018/12/16/17:23:05.005106,109544,1545002585,4848003,imu_link,-0.0415841746934,-0.0350281092425,0.693725850075,0.718183982637,"(0.02, 0.0, 0.0, 0.0, 0.02, 0.0, 0.0, 0.0, 0.02)",0.0,0.0,0.0,"(0.0, 0.0, 0.0, 0.0, 0.0, 0.0, 0.0, 0.0, 0.0)",0.0,0.0,0.0,"(0.0, 0.0, 0.0, 0.0, 0.0, 0.0, 0.0, 0.0, 0.0)"
2018/12/16/17:23:05.014915,109545,1545002585,14647006,imu_link,-0.041578009459,-0.0350307027262,0.693709268711,0.718200229393,"(0.02, 0.0, 0.0, 0.0, 0.02, 0.0, 0.0, 0.0, 0.02)",0.0,0.0,0.0,"(0.0, 0.0, 0.0, 0.0, 0.0, 0.0, 0.0, 0.0, 0.0)",0.0,0.0,0.0,"(0.0, 0.0, 0.0, 0.0, 0.0, 0.0, 0.0, 0.0, 0.0)"
2018/12/16/17:23:05.024971,109546,1545002585,24732112,imu_link,-0.0415748570363,-0.0350328028773,0.693696165352,0.718212965743,"(0.02, 0.0, 0.0, 0.0, 0.02, 0.0, 0.0, 0.0, 0.02)",0.0,0.0,0.0,"(0.0, 0.0, 0.0, 0.0, 0.0, 0.0, 0.0, 0.0, 0.0)",0.0,0.0,0.0,"(0.0, 0.0, 0.0, 0.0, 0.0, 0.0, 0.0, 0.0, 0.0)"
2018/12/16/17:23:05.035110,109547,1545002585,34857988,imu_link,-0.0415954857981,-0.0349734474106,0.693688140615,0.718222414791,"(0.02, 0.0, 0.0, 0.0, 0.02, 0.0, 0.0, 0.0, 0.02)",0.0,0.0,0.0,"(0.0, 0.0, 0.0, 0.0, 0.0, 0.0, 0.0, 0.0, 0.0)",0.0,0.0,0.0,"(0.0, 0.0, 0.0, 0.0, 0.0, 0.0, 0.0, 0.0, 0.0)"
2018/12/16/17:23:05.044965,109548,1545002585,44744968,imu_link,-0.0415880325105,-0.0349539893357,0.693678092419,0.718233498439,"(0.02, 0.0, 0.0, 0.0, 0.02, 0.0, 0.0, 0.0, 0.02)",0.0,0.0,0.0,"(0.0, 0.0, 0.0, 0.0, 0.0, 0.0, 0.0, 0.0, 0.0)",0.0,0.0,0.0,"(0.0, 0.0, 0.0, 0.0, 0.0, 0.0, 0.0, 0.0, 0.0)"
2018/12/16/17:23:05.055002,109549,1545002585,54686069,imu_link,-0.0415881799825,-0.0349794804136,0.693660449603,0.718249288125,"(0.02, 0.0, 0.0, 0.0, 0.02, 0.0, 0.0, 0.0, 0.02)",0.0,0.0,0.0,"(0.0, 0.0, 0.0, 0.0, 0.0, 0.0, 0.0, 0.0, 0.0)",0.0,0.0,0.0,"(0.0, 0.0, 0.0, 0.0, 0.0, 0.0, 0.0, 0.0, 0.0)"
2018/12/16/17:23:05.065286,109550,1545002585,64958095,imu_link,-0.0415809892097,-0.0350049339967,0.693653070134,0.718255591155,"(0.02, 0.0, 0.0, 0.0, 0.02, 0.0, 0.0, 0.0, 0.02)",0.0,0.0,0.0,"(0.0, 0.0, 0.0, 0.0, 0.0, 0.0, 0.0, 0.0, 0.0)",0.0,0.0,0.0,"(0.0, 0.0, 0.0, 0.0, 0.0, 0.0, 0.0, 0.0, 0.0)"
2018/12/16/17:23:05.075125,109551,1545002585,74774026,imu_link,-0.041606068458,-0.0349565018474,0.693653460133,0.718256120956,"(0.02, 0.0, 0.0, 0.0, 0.02, 0.0, 0.0, 0.0, 0.02)",0.0,0.0,0.0,"(0.0, 0.0, 0.0, 0.0, 0.0, 0.0, 0.0, 0.0, 0.0)",0.0,0.0,0.0,"(0.0, 0.0, 0.0, 0.0, 0.0, 0.0, 0.0, 0.0, 0.0)"
2018/12/16/17:23:05.084909,109552,1545002585,84703922,imu_link,-0.0416298617426,-0.0349416886974,0.693632053361,0.718276136004,"(0.02, 0.0, 0.0, 0.0, 0.02, 0.0, 0.0, 0.0, 0.02)",0.0,0.0,0.0,"(0.0, 0.0, 0.0, 0.0, 0.0, 0.0, 0.0, 0.0, 0.0)",0.0,0.0,0.0,"(0.0, 0.0, 0.0, 0.0, 0.0, 0.0, 0.0, 0.0, 0.0)"
2018/12/16/17:23:05.094769,109553,1545002585,94567060,imu_link,-0.0416431719861,-0.0349356120202,0.693613128888,0.718293934733,"(0.02, 0.0, 0.0, 0.0, 0.02, 0.0, 0.0, 0.0, 0.02)",0.0,0.0,0.0,"(0.0, 0.0, 0.0, 0.0, 0.0, 0.0, 0.0, 0.0, 0.0)",0.0,0.0,0.0,"(0.0, 0.0, 0.0, 0.0, 0.0, 0.0, 0.0, 0.0, 0.0)"
2018/12/16/17:23:05.104969,109554,1545002585,104753017,imu_link,-0.0416846921917,-0.0349111784158,0.693601945488,0.718303513338,"(0.02, 0.0, 0.0, 0.0, 0.02, 0.0, 0.0, 0.0, 0.02)",0.0,0.0,0.0,"(0.0, 0.0, 0.0, 0.0, 0.0, 0.0, 0.0, 0.0, 0.0)",0.0,0.0,0.0,"(0.0, 0.0, 0.0, 0.0, 0.0, 0.0, 0.0, 0.0, 0.0)"
2018/12/16/17:23:05.114855,109555,1545002585,114640951,imu_link,-0.0417034746386,-0.0349140196431,0.693591588153,0.718312286042,"(0.02, 0.0, 0.0, 0.0, 0.02, 0.0, 0.0, 0.0, 0.02)",0.0,0.0,0.0,"(0.0, 0.0, 0.0, 0.0, 0.0, 0.0, 0.0, 0.0, 0.0)",0.0,0.0,0.0,"(0.0, 0.0, 0.0, 0.0, 0.0, 0.0, 0.0, 0.0, 0.0)"
2018/12/16/17:23:05.124950,109556,1545002585,124684095,imu_link,-0.0417390718233,-0.0349258641518,0.693569842123,0.718330639743,"(0.02, 0.0, 0.0, 0.0, 0.02, 0.0, 0.0, 0.0, 0.02)",0.0,0.0,0.0,"(0.0, 0.0, 0.0, 0.0, 0.0, 0.0, 0.0, 0.0, 0.0)",0.0,0.0,0.0,"(0.0, 0.0, 0.0, 0.0, 0.0, 0.0, 0.0, 0.0, 0.0)"
2018/12/16/17:23:05.134973,109557,1545002585,134665012,imu_link,-0.0417867053532,-0.0349232297713,0.693552521753,0.718344721459,"(0.02, 0.0, 0.0, 0.0, 0.02, 0.0, 0.0, 0.0, 0.02)",0.0,0.0,0.0,"(0.0, 0.0, 0.0, 0.0, 0.0, 0.0, 0.0, 0.0, 0.0)",0.0,0.0,0.0,"(0.0, 0.0, 0.0, 0.0, 0.0, 0.0, 0.0, 0.0, 0.0)"
2018/12/16/17:23:05.144983,109558,1545002585,144709110,imu_link,-0.0417720719178,-0.0349572309493,0.693563801054,0.718333028532,"(0.02, 0.0, 0.0, 0.0, 0.02, 0.0, 0.0, 0.0, 0.02)",0.0,0.0,0.0,"(0.0, 0.0, 0.0, 0.0, 0.0, 0.0, 0.0, 0.0, 0.0)",0.0,0.0,0.0,"(0.0, 0.0, 0.0, 0.0, 0.0, 0.0, 0.0, 0.0, 0.0)"
2018/12/16/17:23:05.155233,109559,1545002585,154717922,imu_link,-0.0418293140465,-0.034991364266,0.693539250215,0.718351739279,"(0.02, 0.0, 0.0, 0.0, 0.02, 0.0, 0.0, 0.0, 0.02)",0.0,0.0,0.0,"(0.0, 0.0, 0.0, 0.0, 0.0, 0.0, 0.0, 0.0, 0.0)",0.0,0.0,0.0,"(0.0, 0.0, 0.0, 0.0, 0.0, 0.0, 0.0, 0.0, 0.0)"
2018/12/16/17:23:05.164841,109560,1545002585,164690971,imu_link,-0.0418889613948,-0.0349967970632,0.693521091159,0.718365530372,"(0.02, 0.0, 0.0, 0.0, 0.02, 0.0, 0.0, 0.0, 0.02)",0.0,0.0,0.0,"(0.0, 0.0, 0.0, 0.0, 0.0, 0.0, 0.0, 0.0, 0.0)",0.0,0.0,0.0,"(0.0, 0.0, 0.0, 0.0, 0.0, 0.0, 0.0, 0.0, 0.0)"
2018/12/16/17:23:05.174924,109561,1545002585,174649000,imu_link,-0.0419236028193,-0.0350337298199,0.693498982463,0.718383052852,"(0.02, 0.0, 0.0, 0.0, 0.02, 0.0, 0.0, 0.0, 0.02)",0.0,0.0,0.0,"(0.0, 0.0, 0.0, 0.0, 0.0, 0.0, 0.0, 0.0, 0.0)",0.0,0.0,0.0,"(0.0, 0.0, 0.0, 0.0, 0.0, 0.0, 0.0, 0.0, 0.0)"
2018/12/16/17:23:05.184995,109562,1545002585,184762001,imu_link,-0.0419673095269,-0.0350420617828,0.693471270411,0.718406845702,"(0.02, 0.0, 0.0, 0.0, 0.02, 0.0, 0.0, 0.0, 0.02)",0.0,0.0,0.0,"(0.0, 0.0, 0.0, 0.0, 0.0, 0.0, 0.0, 0.0, 0.0)",0.0,0.0,0.0,"(0.0, 0.0, 0.0, 0.0, 0.0, 0.0, 0.0, 0.0, 0.0)"
2018/12/16/17:23:05.194898,109563,1545002585,194653034,imu_link,-0.0420150119594,-0.0350152368403,0.693459683366,0.718416550133,"(0.02, 0.0, 0.0, 0.0, 0.02, 0.0, 0.0, 0.0, 0.02)",0.0,0.0,0.0,"(0.0, 0.0, 0.0, 0.0, 0.0, 0.0, 0.0, 0.0, 0.0)",0.0,0.0,0.0,"(0.0, 0.0, 0.0, 0.0, 0.0, 0.0, 0.0, 0.0, 0.0)"
2018/12/16/17:23:05.205391,109564,1545002585,205176115,imu_link,-0.0420477611581,-0.0350034522815,0.693438168676,0.718435975111,"(0.02, 0.0, 0.0, 0.0, 0.02, 0.0, 0.0, 0.0, 0.02)",0.0,0.0,0.0,"(0.0, 0.0, 0.0, 0.0, 0.0, 0.0, 0.0, 0.0, 0.0)",0.0,0.0,0.0,"(0.0, 0.0, 0.0, 0.0, 0.0, 0.0, 0.0, 0.0, 0.0)"
2018/12/16/17:23:05.214974,109565,1545002585,214714050,imu_link,-0.0420607934856,-0.0350268878463,0.693404743816,0.71846633048,"(0.02, 0.0, 0.0, 0.0, 0.02, 0.0, 0.0, 0.0, 0.02)",0.0,0.0,0.0,"(0.0, 0.0, 0.0, 0.0, 0.0, 0.0, 0.0, 0.0, 0.0)",0.0,0.0,0.0,"(0.0, 0.0, 0.0, 0.0, 0.0, 0.0, 0.0, 0.0, 0.0)"
2018/12/16/17:23:05.224972,109566,1545002585,224734067,imu_link,-0.0420685667318,-0.0350183323286,0.693384499972,0.71848582957,"(0.02, 0.0, 0.0, 0.0, 0.02, 0.0, 0.0, 0.0, 0.02)",0.0,0.0,0.0,"(0.0, 0.0, 0.0, 0.0, 0.0, 0.0, 0.0, 0.0, 0.0)",0.0,0.0,0.0,"(0.0, 0.0, 0.0, 0.0, 0.0, 0.0, 0.0, 0.0, 0.0)"
2018/12/16/17:23:05.234988,109567,1545002585,234735965,imu_link,-0.0420878229929,-0.0350039677351,0.693364023549,0.718505162296,"(0.02, 0.0, 0.0, 0.0, 0.02, 0.0, 0.0, 0.0, 0.02)",0.0,0.0,0.0,"(0.0, 0.0, 0.0, 0.0, 0.0, 0.0, 0.0, 0.0, 0.0)",0.0,0.0,0.0,"(0.0, 0.0, 0.0, 0.0, 0.0, 0.0, 0.0, 0.0, 0.0)"
2018/12/16/17:23:05.245101,109568,1545002585,244904994,imu_link,-0.0421138031899,-0.0350145156897,0.693325828177,0.718539983059,"(0.02, 0.0, 0.0, 0.0, 0.02, 0.0, 0.0, 0.0, 0.02)",0.0,0.0,0.0,"(0.0, 0.0, 0.0, 0.0, 0.0, 0.0, 0.0, 0.0, 0.0)",0.0,0.0,0.0,"(0.0, 0.0, 0.0, 0.0, 0.0, 0.0, 0.0, 0.0, 0.0)"
2018/12/16/17:23:05.255088,109569,1545002585,254825115,imu_link,-0.0421487761243,-0.0349910032898,0.6932925241,0.718571211772,"(0.02, 0.0, 0.0, 0.0, 0.02, 0.0, 0.0, 0.0, 0.02)",0.0,0.0,0.0,"(0.0, 0.0, 0.0, 0.0, 0.0, 0.0, 0.0, 0.0, 0.0)",0.0,0.0,0.0,"(0.0, 0.0, 0.0, 0.0, 0.0, 0.0, 0.0, 0.0, 0.0)"
2018/12/16/17:23:05.264939,109570,1545002585,264708042,imu_link,-0.0421686096821,-0.0349944090807,0.693263371594,0.718598008136,"(0.02, 0.0, 0.0, 0.0, 0.02, 0.0, 0.0, 0.0, 0.02)",0.0,0.0,0.0,"(0.0, 0.0, 0.0, 0.0, 0.0, 0.0, 0.0, 0.0, 0.0)",0.0,0.0,0.0,"(0.0, 0.0, 0.0, 0.0, 0.0, 0.0, 0.0, 0.0, 0.0)"
2018/12/16/17:23:05.274947,109571,1545002585,274696111,imu_link,-0.0421872797841,-0.0349921322048,0.693231914162,0.718627370266,"(0.02, 0.0, 0.0, 0.0, 0.02, 0.0, 0.0, 0.0, 0.02)",0.0,0.0,0.0,"(0.0, 0.0, 0.0, 0.0, 0.0, 0.0, 0.0, 0.0, 0.0)",0.0,0.0,0.0,"(0.0, 0.0, 0.0, 0.0, 0.0, 0.0, 0.0, 0.0, 0.0)"
2018/12/16/17:23:05.285121,109572,1545002585,284888982,imu_link,-0.0422064621827,-0.0349872614418,0.693207065458,0.718650450836,"(0.02, 0.0, 0.0, 0.0, 0.02, 0.0, 0.0, 0.0, 0.02)",0.0,0.0,0.0,"(0.0, 0.0, 0.0, 0.0, 0.0, 0.0, 0.0, 0.0, 0.0)",0.0,0.0,0.0,"(0.0, 0.0, 0.0, 0.0, 0.0, 0.0, 0.0, 0.0, 0.0)"
2018/12/16/17:23:05.294994,109573,1545002585,294791936,imu_link,-0.0422027305673,-0.0349553706427,0.693181132209,0.718677236,"(0.02, 0.0, 0.0, 0.0, 0.02, 0.0, 0.0, 0.0, 0.02)",0.0,0.0,0.0,"(0.0, 0.0, 0.0, 0.0, 0.0, 0.0, 0.0, 0.0, 0.0)",0.0,0.0,0.0,"(0.0, 0.0, 0.0, 0.0, 0.0, 0.0, 0.0, 0.0, 0.0)"
2018/12/16/17:23:05.305030,109574,1545002585,304826974,imu_link,-0.0422013742369,-0.0349499632066,0.693154385914,0.718703375095,"(0.02, 0.0, 0.0, 0.0, 0.02, 0.0, 0.0, 0.0, 0.02)",0.0,0.0,0.0,"(0.0, 0.0, 0.0, 0.0, 0.0, 0.0, 0.0, 0.0, 0.0)",0.0,0.0,0.0,"(0.0, 0.0, 0.0, 0.0, 0.0, 0.0, 0.0, 0.0, 0.0)"
2018/12/16/17:23:05.315130,109575,1545002585,314632892,imu_link,-0.0422424385705,-0.0349102454895,0.693132067192,0.718724417683,"(0.02, 0.0, 0.0, 0.0, 0.02, 0.0, 0.0, 0.0, 0.02)",0.0,0.0,0.0,"(0.0, 0.0, 0.0, 0.0, 0.0, 0.0, 0.0, 0.0, 0.0)",0.0,0.0,0.0,"(0.0, 0.0, 0.0, 0.0, 0.0, 0.0, 0.0, 0.0, 0.0)"
2018/12/16/17:23:05.324930,109576,1545002585,324733972,imu_link,-0.0422342243918,-0.0348927971569,0.693105398009,0.718751466258,"(0.02, 0.0, 0.0, 0.0, 0.02, 0.0, 0.0, 0.0, 0.02)",0.0,0.0,0.0,"(0.0, 0.0, 0.0, 0.0, 0.0, 0.0, 0.0, 0.0, 0.0)",0.0,0.0,0.0,"(0.0, 0.0, 0.0, 0.0, 0.0, 0.0, 0.0, 0.0, 0.0)"
2018/12/16/17:23:05.334915,109577,1545002585,334695100,imu_link,-0.042233802674,-0.0348917627036,0.693068252233,0.718787359762,"(0.02, 0.0, 0.0, 0.0, 0.02, 0.0, 0.0, 0.0, 0.02)",0.0,0.0,0.0,"(0.0, 0.0, 0.0, 0.0, 0.0, 0.0, 0.0, 0.0, 0.0)",0.0,0.0,0.0,"(0.0, 0.0, 0.0, 0.0, 0.0, 0.0, 0.0, 0.0, 0.0)"
2018/12/16/17:23:05.344969,109578,1545002585,344738960,imu_link,-0.0422418034531,-0.0348494521361,0.693047541513,0.718808911276,"(0.02, 0.0, 0.0, 0.0, 0.02, 0.0, 0.0, 0.0, 0.02)",0.0,0.0,0.0,"(0.0, 0.0, 0.0, 0.0, 0.0, 0.0, 0.0, 0.0, 0.0)",0.0,0.0,0.0,"(0.0, 0.0, 0.0, 0.0, 0.0, 0.0, 0.0, 0.0, 0.0)"
2018/12/16/17:23:05.354977,109579,1545002585,354722023,imu_link,-0.0422762471032,-0.0348173770882,0.693020843931,0.718834180504,"(0.02, 0.0, 0.0, 0.0, 0.02, 0.0, 0.0, 0.0, 0.02)",0.0,0.0,0.0,"(0.0, 0.0, 0.0, 0.0, 0.0, 0.0, 0.0, 0.0, 0.0)",0.0,0.0,0.0,"(0.0, 0.0, 0.0, 0.0, 0.0, 0.0, 0.0, 0.0, 0.0)"
2018/12/16/17:23:05.364973,109580,1545002585,364743947,imu_link,-0.042273232183,-0.0348350438055,0.692986062841,0.718867032401,"(0.02, 0.0, 0.0, 0.0, 0.02, 0.0, 0.0, 0.0, 0.02)",0.0,0.0,0.0,"(0.0, 0.0, 0.0, 0.0, 0.0, 0.0, 0.0, 0.0, 0.0)",0.0,0.0,0.0,"(0.0, 0.0, 0.0, 0.0, 0.0, 0.0, 0.0, 0.0, 0.0)"
2018/12/16/17:23:05.374893,109581,1545002585,374645948,imu_link,-0.0422741579724,-0.0348319513655,0.69295381568,0.718898212591,"(0.02, 0.0, 0.0, 0.0, 0.02, 0.0, 0.0, 0.0, 0.02)",0.0,0.0,0.0,"(0.0, 0.0, 0.0, 0.0, 0.0, 0.0, 0.0, 0.0, 0.0)",0.0,0.0,0.0,"(0.0, 0.0, 0.0, 0.0, 0.0, 0.0, 0.0, 0.0, 0.0)"
2018/12/16/17:23:05.385018,109582,1545002585,384819030,imu_link,-0.0422877130989,-0.0348033912589,0.692922132861,0.718929336631,"(0.02, 0.0, 0.0, 0.0, 0.02, 0.0, 0.0, 0.0, 0.02)",0.0,0.0,0.0,"(0.0, 0.0, 0.0, 0.0, 0.0, 0.0, 0.0, 0.0, 0.0)",0.0,0.0,0.0,"(0.0, 0.0, 0.0, 0.0, 0.0, 0.0, 0.0, 0.0, 0.0)"
2018/12/16/17:23:05.395160,109583,1545002585,394656896,imu_link,-0.042251693156,-0.0347685403257,0.69293252381,0.718923125567,"(0.02, 0.0, 0.0, 0.0, 0.02, 0.0, 0.0, 0.0, 0.02)",0.0,0.0,0.0,"(0.0, 0.0, 0.0, 0.0, 0.0, 0.0, 0.0, 0.0, 0.0)",0.0,0.0,0.0,"(0.0, 0.0, 0.0, 0.0, 0.0, 0.0, 0.0, 0.0, 0.0)"
2018/12/16/17:23:05.405526,109584,1545002585,405354976,imu_link,-0.0422305432677,-0.0347626274516,0.692907613865,0.718948662699,"(0.02, 0.0, 0.0, 0.0, 0.02, 0.0, 0.0, 0.0, 0.02)",0.0,0.0,0.0,"(0.0, 0.0, 0.0, 0.0, 0.0, 0.0, 0.0, 0.0, 0.0)",0.0,0.0,0.0,"(0.0, 0.0, 0.0, 0.0, 0.0, 0.0, 0.0, 0.0, 0.0)"
2018/12/16/17:23:05.415044,109585,1545002585,414868116,imu_link,-0.0422741186933,-0.0347269052654,0.692875619213,0.718978662576,"(0.02, 0.0, 0.0, 0.0, 0.02, 0.0, 0.0, 0.0, 0.02)",0.0,0.0,0.0,"(0.0, 0.0, 0.0, 0.0, 0.0, 0.0, 0.0, 0.0, 0.0)",0.0,0.0,0.0,"(0.0, 0.0, 0.0, 0.0, 0.0, 0.0, 0.0, 0.0, 0.0)"
2018/12/16/17:23:05.425019,109586,1545002585,424798011,imu_link,-0.0422444680124,-0.0347340652178,0.69284889588,0.719005811599,"(0.02, 0.0, 0.0, 0.0, 0.02, 0.0, 0.0, 0.0, 0.02)",0.0,0.0,0.0,"(0.0, 0.0, 0.0, 0.0, 0.0, 0.0, 0.0, 0.0, 0.0)",0.0,0.0,0.0,"(0.0, 0.0, 0.0, 0.0, 0.0, 0.0, 0.0, 0.0, 0.0)"
2018/12/16/17:23:05.435253,109587,1545002585,435026884,imu_link,-0.0422625856544,-0.0346680938393,0.69282066936,0.719035129344,"(0.02, 0.0, 0.0, 0.0, 0.02, 0.0, 0.0, 0.0, 0.02)",0.0,0.0,0.0,"(0.0, 0.0, 0.0, 0.0, 0.0, 0.0, 0.0, 0.0, 0.0)",0.0,0.0,0.0,"(0.0, 0.0, 0.0, 0.0, 0.0, 0.0, 0.0, 0.0, 0.0)"
2018/12/16/17:23:05.445258,109588,1545002585,444974899,imu_link,-0.0422034044466,-0.034639553865,0.69279899683,0.719060862481,"(0.02, 0.0, 0.0, 0.0, 0.02, 0.0, 0.0, 0.0, 0.02)",0.0,0.0,0.0,"(0.0, 0.0, 0.0, 0.0, 0.0, 0.0, 0.0, 0.0, 0.0)",0.0,0.0,0.0,"(0.0, 0.0, 0.0, 0.0, 0.0, 0.0, 0.0, 0.0, 0.0)"
2018/12/16/17:23:05.455089,109589,1545002585,454834938,imu_link,-0.0422174421422,-0.0346227685851,0.69277530463,0.719083672995,"(0.02, 0.0, 0.0, 0.0, 0.02, 0.0, 0.0, 0.0, 0.02)",0.0,0.0,0.0,"(0.0, 0.0, 0.0, 0.0, 0.0, 0.0, 0.0, 0.0, 0.0)",0.0,0.0,0.0,"(0.0, 0.0, 0.0, 0.0, 0.0, 0.0, 0.0, 0.0, 0.0)"
2018/12/16/17:23:05.464984,109590,1545002585,464778900,imu_link,-0.0422099864766,-0.0346719657874,0.692756220345,0.719100125854,"(0.02, 0.0, 0.0, 0.0, 0.02, 0.0, 0.0, 0.0, 0.02)",0.0,0.0,0.0,"(0.0, 0.0, 0.0, 0.0, 0.0, 0.0, 0.0, 0.0, 0.0)",0.0,0.0,0.0,"(0.0, 0.0, 0.0, 0.0, 0.0, 0.0, 0.0, 0.0, 0.0)"
2018/12/16/17:23:05.475174,109591,1545002585,474951982,imu_link,-0.0422314646006,-0.0346823725324,0.692755220975,0.719099325716,"(0.02, 0.0, 0.0, 0.0, 0.02, 0.0, 0.0, 0.0, 0.02)",0.0,0.0,0.0,"(0.0, 0.0, 0.0, 0.0, 0.0, 0.0, 0.0, 0.0, 0.0)",0.0,0.0,0.0,"(0.0, 0.0, 0.0, 0.0, 0.0, 0.0, 0.0, 0.0, 0.0)"
2018/12/16/17:23:05.485118,109592,1545002585,484913110,imu_link,-0.0421744273298,-0.0347401692131,0.692737708177,0.719116754076,"(0.02, 0.0, 0.0, 0.0, 0.02, 0.0, 0.0, 0.0, 0.02)",0.0,0.0,0.0,"(0.0, 0.0, 0.0, 0.0, 0.0, 0.0, 0.0, 0.0, 0.0)",0.0,0.0,0.0,"(0.0, 0.0, 0.0, 0.0, 0.0, 0.0, 0.0, 0.0, 0.0)"
2018/12/16/17:23:05.494779,109593,1545002585,494596958,imu_link,-0.0421112192851,-0.0346755922342,0.692735710103,0.719125499799,"(0.02, 0.0, 0.0, 0.0, 0.02, 0.0, 0.0, 0.0, 0.02)",0.0,0.0,0.0,"(0.0, 0.0, 0.0, 0.0, 0.0, 0.0, 0.0, 0.0, 0.0)",0.0,0.0,0.0,"(0.0, 0.0, 0.0, 0.0, 0.0, 0.0, 0.0, 0.0, 0.0)"
2018/12/16/17:23:05.505246,109594,1545002585,504800081,imu_link,-0.0420882377045,-0.034564163009,0.692737212169,0.719130762629,"(0.02, 0.0, 0.0, 0.0, 0.02, 0.0, 0.0, 0.0, 0.02)",0.0,0.0,0.0,"(0.0, 0.0, 0.0, 0.0, 0.0, 0.0, 0.0, 0.0, 0.0)",0.0,0.0,0.0,"(0.0, 0.0, 0.0, 0.0, 0.0, 0.0, 0.0, 0.0, 0.0)"
2018/12/16/17:23:05.515003,109595,1545002585,514672994,imu_link,-0.0421347897201,-0.034492504786,0.69272750228,0.719140830571,"(0.02, 0.0, 0.0, 0.0, 0.02, 0.0, 0.0, 0.0, 0.02)",0.0,0.0,0.0,"(0.0, 0.0, 0.0, 0.0, 0.0, 0.0, 0.0, 0.0, 0.0)",0.0,0.0,0.0,"(0.0, 0.0, 0.0, 0.0, 0.0, 0.0, 0.0, 0.0, 0.0)"
2018/12/16/17:23:05.524998,109596,1545002585,524715900,imu_link,-0.042102963458,-0.0345263463039,0.692747702301,0.719121611994,"(0.02, 0.0, 0.0, 0.0, 0.02, 0.0, 0.0, 0.0, 0.02)",0.0,0.0,0.0,"(0.0, 0.0, 0.0, 0.0, 0.0, 0.0, 0.0, 0.0, 0.0)",0.0,0.0,0.0,"(0.0, 0.0, 0.0, 0.0, 0.0, 0.0, 0.0, 0.0, 0.0)"
2018/12/16/17:23:05.534969,109597,1545002585,534713983,imu_link,-0.0420952050097,-0.0345593963004,0.692759588683,0.719109027985,"(0.02, 0.0, 0.0, 0.0, 0.02, 0.0, 0.0, 0.0, 0.02)",0.0,0.0,0.0,"(0.0, 0.0, 0.0, 0.0, 0.0, 0.0, 0.0, 0.0, 0.0)",0.0,0.0,0.0,"(0.0, 0.0, 0.0, 0.0, 0.0, 0.0, 0.0, 0.0, 0.0)"
2018/12/16/17:23:05.545001,109598,1545002585,544784069,imu_link,-0.0420605343981,-0.0345513398214,0.692763731673,0.719107452639,"(0.02, 0.0, 0.0, 0.0, 0.02, 0.0, 0.0, 0.0, 0.02)",0.0,0.0,0.0,"(0.0, 0.0, 0.0, 0.0, 0.0, 0.0, 0.0, 0.0, 0.0)",0.0,0.0,0.0,"(0.0, 0.0, 0.0, 0.0, 0.0, 0.0, 0.0, 0.0, 0.0)"
2018/12/16/17:23:05.555059,109599,1545002585,554790973,imu_link,-0.0420873391966,-0.0344273627034,0.692785583009,0.719090779075,"(0.02, 0.0, 0.0, 0.0, 0.02, 0.0, 0.0, 0.0, 0.02)",0.0,0.0,0.0,"(0.0, 0.0, 0.0, 0.0, 0.0, 0.0, 0.0, 0.0, 0.0)",0.0,0.0,0.0,"(0.0, 0.0, 0.0, 0.0, 0.0, 0.0, 0.0, 0.0, 0.0)"
2018/12/16/17:23:05.565306,109600,1545002585,564780950,imu_link,-0.042134658439,-0.0343715572754,0.692801431937,0.719075408086,"(0.02, 0.0, 0.0, 0.0, 0.02, 0.0, 0.0, 0.0, 0.02)",0.0,0.0,0.0,"(0.0, 0.0, 0.0, 0.0, 0.0, 0.0, 0.0, 0.0, 0.0)",0.0,0.0,0.0,"(0.0, 0.0, 0.0, 0.0, 0.0, 0.0, 0.0, 0.0, 0.0)"
2018/12/16/17:23:05.574936,109601,1545002585,574734926,imu_link,-0.042121432659,-0.03444159641,0.692812439739,0.719062225882,"(0.02, 0.0, 0.0, 0.0, 0.02, 0.0, 0.0, 0.0, 0.02)",0.0,0.0,0.0,"(0.0, 0.0, 0.0, 0.0, 0.0, 0.0, 0.0, 0.0, 0.0)",0.0,0.0,0.0,"(0.0, 0.0, 0.0, 0.0, 0.0, 0.0, 0.0, 0.0, 0.0)"
2018/12/16/17:23:05.585050,109602,1545002585,584846019,imu_link,-0.0420787051531,-0.0344881409933,0.692837621308,0.719038233478,"(0.02, 0.0, 0.0, 0.0, 0.02, 0.0, 0.0, 0.0, 0.02)",0.0,0.0,0.0,"(0.0, 0.0, 0.0, 0.0, 0.0, 0.0, 0.0, 0.0, 0.0)",0.0,0.0,0.0,"(0.0, 0.0, 0.0, 0.0, 0.0, 0.0, 0.0, 0.0, 0.0)"
2018/12/16/17:23:05.594847,109603,1545002585,594611883,imu_link,-0.0421521143115,-0.0344050206952,0.692860361159,0.719016003817,"(0.02, 0.0, 0.0, 0.0, 0.02, 0.0, 0.0, 0.0, 0.02)",0.0,0.0,0.0,"(0.0, 0.0, 0.0, 0.0, 0.0, 0.0, 0.0, 0.0, 0.0)",0.0,0.0,0.0,"(0.0, 0.0, 0.0, 0.0, 0.0, 0.0, 0.0, 0.0, 0.0)"
2018/12/16/17:23:05.605217,109604,1545002585,604919910,imu_link,-0.0422021394112,-0.0343369213021,0.692872881966,0.719004259167,"(0.02, 0.0, 0.0, 0.0, 0.02, 0.0, 0.0, 0.0, 0.02)",0.0,0.0,0.0,"(0.0, 0.0, 0.0, 0.0, 0.0, 0.0, 0.0, 0.0, 0.0)",0.0,0.0,0.0,"(0.0, 0.0, 0.0, 0.0, 0.0, 0.0, 0.0, 0.0, 0.0)"
2018/12/16/17:23:05.614919,109605,1545002585,614665985,imu_link,-0.0421670388451,-0.0343430715637,0.692896335037,0.718983423428,"(0.02, 0.0, 0.0, 0.0, 0.02, 0.0, 0.0, 0.0, 0.02)",0.0,0.0,0.0,"(0.0, 0.0, 0.0, 0.0, 0.0, 0.0, 0.0, 0.0, 0.0)",0.0,0.0,0.0,"(0.0, 0.0, 0.0, 0.0, 0.0, 0.0, 0.0, 0.0, 0.0)"
2018/12/16/17:23:05.624996,109606,1545002585,624749898,imu_link,-0.0422048865964,-0.0342911154733,0.692909629902,0.71897086988,"(0.02, 0.0, 0.0, 0.0, 0.02, 0.0, 0.0, 0.0, 0.02)",0.0,0.0,0.0,"(0.0, 0.0, 0.0, 0.0, 0.0, 0.0, 0.0, 0.0, 0.0)",0.0,0.0,0.0,"(0.0, 0.0, 0.0, 0.0, 0.0, 0.0, 0.0, 0.0, 0.0)"
2018/12/16/17:23:05.635293,109607,1545002585,634824991,imu_link,-0.0422264009409,-0.0342345196476,0.692940190511,0.718942849678,"(0.02, 0.0, 0.0, 0.0, 0.02, 0.0, 0.0, 0.0, 0.02)",0.0,0.0,0.0,"(0.0, 0.0, 0.0, 0.0, 0.0, 0.0, 0.0, 0.0, 0.0)",0.0,0.0,0.0,"(0.0, 0.0, 0.0, 0.0, 0.0, 0.0, 0.0, 0.0, 0.0)"
2018/12/16/17:23:05.645112,109608,1545002585,644820928,imu_link,-0.0421751002081,-0.0341945839323,0.692978164438,0.718911159299,"(0.02, 0.0, 0.0, 0.0, 0.02, 0.0, 0.0, 0.0, 0.02)",0.0,0.0,0.0,"(0.0, 0.0, 0.0, 0.0, 0.0, 0.0, 0.0, 0.0, 0.0)",0.0,0.0,0.0,"(0.0, 0.0, 0.0, 0.0, 0.0, 0.0, 0.0, 0.0, 0.0)"
2018/12/16/17:23:05.654933,109609,1545002585,654714107,imu_link,-0.0422035878349,-0.034139275691,0.692995979353,0.718894943389,"(0.02, 0.0, 0.0, 0.0, 0.02, 0.0, 0.0, 0.0, 0.02)",0.0,0.0,0.0,"(0.0, 0.0, 0.0, 0.0, 0.0, 0.0, 0.0, 0.0, 0.0)",0.0,0.0,0.0,"(0.0, 0.0, 0.0, 0.0, 0.0, 0.0, 0.0, 0.0, 0.0)"
2018/12/16/17:23:05.665017,109610,1545002585,664750099,imu_link,-0.0422374146267,-0.0341268767191,0.693007542791,0.718882398397,"(0.02, 0.0, 0.0, 0.0, 0.02, 0.0, 0.0, 0.0, 0.02)",0.0,0.0,0.0,"(0.0, 0.0, 0.0, 0.0, 0.0, 0.0, 0.0, 0.0, 0.0)",0.0,0.0,0.0,"(0.0, 0.0, 0.0, 0.0, 0.0, 0.0, 0.0, 0.0, 0.0)"
2018/12/16/17:23:05.674978,109611,1545002585,674777984,imu_link,-0.0422136750929,-0.0341276444876,0.693022669112,0.718869174199,"(0.02, 0.0, 0.0, 0.0, 0.02, 0.0, 0.0, 0.0, 0.02)",0.0,0.0,0.0,"(0.0, 0.0, 0.0, 0.0, 0.0, 0.0, 0.0, 0.0, 0.0)",0.0,0.0,0.0,"(0.0, 0.0, 0.0, 0.0, 0.0, 0.0, 0.0, 0.0, 0.0)"
2018/12/16/17:23:05.685039,109612,1545002585,684770107,imu_link,-0.0422298554937,-0.0340971729808,0.693035409534,0.71885738727,"(0.02, 0.0, 0.0, 0.0, 0.02, 0.0, 0.0, 0.0, 0.02)",0.0,0.0,0.0,"(0.0, 0.0, 0.0, 0.0, 0.0, 0.0, 0.0, 0.0, 0.0)",0.0,0.0,0.0,"(0.0, 0.0, 0.0, 0.0, 0.0, 0.0, 0.0, 0.0, 0.0)"
2018/12/16/17:23:05.695017,109613,1545002585,694816112,imu_link,-0.0422595676039,-0.03408211034,0.69303419049,0.718857530748,"(0.02, 0.0, 0.0, 0.0, 0.02, 0.0, 0.0, 0.0, 0.02)",0.0,0.0,0.0,"(0.0, 0.0, 0.0, 0.0, 0.0, 0.0, 0.0, 0.0, 0.0)",0.0,0.0,0.0,"(0.0, 0.0, 0.0, 0.0, 0.0, 0.0, 0.0, 0.0, 0.0)"
2018/12/16/17:23:05.705109,109614,1545002585,704826116,imu_link,-0.042267444763,-0.034091910324,0.693034092069,0.718856697815,"(0.02, 0.0, 0.0, 0.0, 0.02, 0.0, 0.0, 0.0, 0.02)",0.0,0.0,0.0,"(0.0, 0.0, 0.0, 0.0, 0.0, 0.0, 0.0, 0.0, 0.0)",0.0,0.0,0.0,"(0.0, 0.0, 0.0, 0.0, 0.0, 0.0, 0.0, 0.0, 0.0)"
2018/12/16/17:23:05.714911,109615,1545002585,714703083,imu_link,-0.0422552178564,-0.034113962359,0.693026712637,0.71886348475,"(0.02, 0.0, 0.0, 0.0, 0.02, 0.0, 0.0, 0.0, 0.02)",0.0,0.0,0.0,"(0.0, 0.0, 0.0, 0.0, 0.0, 0.0, 0.0, 0.0, 0.0)",0.0,0.0,0.0,"(0.0, 0.0, 0.0, 0.0, 0.0, 0.0, 0.0, 0.0, 0.0)"
2018/12/16/17:23:05.724991,109616,1545002585,724781036,imu_link,-0.0422742846598,-0.0341045352803,0.693024301696,0.718865135327,"(0.02, 0.0, 0.0, 0.0, 0.02, 0.0, 0.0, 0.0, 0.02)",0.0,0.0,0.0,"(0.0, 0.0, 0.0, 0.0, 0.0, 0.0, 0.0, 0.0, 0.0)",0.0,0.0,0.0,"(0.0, 0.0, 0.0, 0.0, 0.0, 0.0, 0.0, 0.0, 0.0)"
2018/12/16/17:23:05.735074,109617,1545002585,734834909,imu_link,-0.0422845695898,-0.0341268615194,0.693018304241,0.718869252705,"(0.02, 0.0, 0.0, 0.0, 0.02, 0.0, 0.0, 0.0, 0.02)",0.0,0.0,0.0,"(0.0, 0.0, 0.0, 0.0, 0.0, 0.0, 0.0, 0.0, 0.0)",0.0,0.0,0.0,"(0.0, 0.0, 0.0, 0.0, 0.0, 0.0, 0.0, 0.0, 0.0)"
2018/12/16/17:23:05.744950,109618,1545002585,744755029,imu_link,-0.0422973216507,-0.0341489121151,0.693002623707,0.718882571716,"(0.02, 0.0, 0.0, 0.0, 0.02, 0.0, 0.0, 0.0, 0.02)",0.0,0.0,0.0,"(0.0, 0.0, 0.0, 0.0, 0.0, 0.0, 0.0, 0.0, 0.0)",0.0,0.0,0.0,"(0.0, 0.0, 0.0, 0.0, 0.0, 0.0, 0.0, 0.0, 0.0)"
2018/12/16/17:23:05.754999,109619,1545002585,754779100,imu_link,-0.0423314693346,-0.0341999026553,0.692983832864,0.71889625173,"(0.02, 0.0, 0.0, 0.0, 0.02, 0.0, 0.0, 0.0, 0.02)",0.0,0.0,0.0,"(0.0, 0.0, 0.0, 0.0, 0.0, 0.0, 0.0, 0.0, 0.0)",0.0,0.0,0.0,"(0.0, 0.0, 0.0, 0.0, 0.0, 0.0, 0.0, 0.0, 0.0)"
2018/12/16/17:23:05.765242,109620,1545002585,764954090,imu_link,-0.0423568536002,-0.0342543476568,0.692965056874,0.718910263226,"(0.02, 0.0, 0.0, 0.0, 0.02, 0.0, 0.0, 0.0, 0.02)",0.0,0.0,0.0,"(0.0, 0.0, 0.0, 0.0, 0.0, 0.0, 0.0, 0.0, 0.0)",0.0,0.0,0.0,"(0.0, 0.0, 0.0, 0.0, 0.0, 0.0, 0.0, 0.0, 0.0)"
2018/12/16/17:23:05.774974,109621,1545002585,774791002,imu_link,-0.0423475440325,-0.0343135622631,0.692968019422,0.71890513214,"(0.02, 0.0, 0.0, 0.0, 0.02, 0.0, 0.0, 0.0, 0.02)",0.0,0.0,0.0,"(0.0, 0.0, 0.0, 0.0, 0.0, 0.0, 0.0, 0.0, 0.0)",0.0,0.0,0.0,"(0.0, 0.0, 0.0, 0.0, 0.0, 0.0, 0.0, 0.0, 0.0)"
2018/12/16/17:23:05.785060,109622,1545002585,784750938,imu_link,-0.0423912324078,-0.0343318962183,0.692951514,0.718917591635,"(0.02, 0.0, 0.0, 0.0, 0.02, 0.0, 0.0, 0.0, 0.02)",0.0,0.0,0.0,"(0.0, 0.0, 0.0, 0.0, 0.0, 0.0, 0.0, 0.0, 0.0)",0.0,0.0,0.0,"(0.0, 0.0, 0.0, 0.0, 0.0, 0.0, 0.0, 0.0, 0.0)"
2018/12/16/17:23:05.795645,109623,1545002585,795264959,imu_link,-0.0423599530688,-0.0343934902235,0.69294546666,0.718922320172,"(0.02, 0.0, 0.0, 0.0, 0.02, 0.0, 0.0, 0.0, 0.02)",0.0,0.0,0.0,"(0.0, 0.0, 0.0, 0.0, 0.0, 0.0, 0.0, 0.0, 0.0)",0.0,0.0,0.0,"(0.0, 0.0, 0.0, 0.0, 0.0, 0.0, 0.0, 0.0, 0.0)"
2018/12/16/17:23:05.805245,109624,1545002585,804789066,imu_link,-0.042369526608,-0.0344605352742,0.692921770422,0.718941384815,"(0.02, 0.0, 0.0, 0.0, 0.02, 0.0, 0.0, 0.0, 0.02)",0.0,0.0,0.0,"(0.0, 0.0, 0.0, 0.0, 0.0, 0.0, 0.0, 0.0, 0.0)",0.0,0.0,0.0,"(0.0, 0.0, 0.0, 0.0, 0.0, 0.0, 0.0, 0.0, 0.0)"
2018/12/16/17:23:05.816211,109625,1545002585,815002918,imu_link,-0.0424031799617,-0.0345283418096,0.69289572858,0.718961246005,"(0.02, 0.0, 0.0, 0.0, 0.02, 0.0, 0.0, 0.0, 0.02)",0.0,0.0,0.0,"(0.0, 0.0, 0.0, 0.0, 0.0, 0.0, 0.0, 0.0, 0.0)",0.0,0.0,0.0,"(0.0, 0.0, 0.0, 0.0, 0.0, 0.0, 0.0, 0.0, 0.0)"
2018/12/16/17:23:05.825042,109626,1545002585,824800968,imu_link,-0.0423705348736,-0.0346151181586,0.69287414244,0.718979800904,"(0.02, 0.0, 0.0, 0.0, 0.02, 0.0, 0.0, 0.0, 0.02)",0.0,0.0,0.0,"(0.0, 0.0, 0.0, 0.0, 0.0, 0.0, 0.0, 0.0, 0.0)",0.0,0.0,0.0,"(0.0, 0.0, 0.0, 0.0, 0.0, 0.0, 0.0, 0.0, 0.0)"
2018/12/16/17:23:05.835347,109627,1545002585,834836006,imu_link,-0.0423897787889,-0.0346683892068,0.692851692199,0.718997734392,"(0.02, 0.0, 0.0, 0.0, 0.02, 0.0, 0.0, 0.0, 0.02)",0.0,0.0,0.0,"(0.0, 0.0, 0.0, 0.0, 0.0, 0.0, 0.0, 0.0, 0.0)",0.0,0.0,0.0,"(0.0, 0.0, 0.0, 0.0, 0.0, 0.0, 0.0, 0.0, 0.0)"
2018/12/16/17:23:05.845089,109628,1545002585,844815015,imu_link,-0.0423496338135,-0.0346908744476,0.692835240064,0.719014869019,"(0.02, 0.0, 0.0, 0.0, 0.02, 0.0, 0.0, 0.0, 0.02)",0.0,0.0,0.0,"(0.0, 0.0, 0.0, 0.0, 0.0, 0.0, 0.0, 0.0, 0.0)",0.0,0.0,0.0,"(0.0, 0.0, 0.0, 0.0, 0.0, 0.0, 0.0, 0.0, 0.0)"
2018/12/16/17:23:05.855206,109629,1545002585,854990959,imu_link,-0.0423120538502,-0.0347509454016,0.692807773886,0.719040645816,"(0.02, 0.0, 0.0, 0.0, 0.02, 0.0, 0.0, 0.0, 0.02)",0.0,0.0,0.0,"(0.0, 0.0, 0.0, 0.0, 0.0, 0.0, 0.0, 0.0, 0.0)",0.0,0.0,0.0,"(0.0, 0.0, 0.0, 0.0, 0.0, 0.0, 0.0, 0.0, 0.0)"
2018/12/16/17:23:05.865171,109630,1545002585,864842891,imu_link,-0.0423215938689,-0.0348082651448,0.692777903093,0.719066091786,"(0.02, 0.0, 0.0, 0.0, 0.02, 0.0, 0.0, 0.0, 0.02)",0.0,0.0,0.0,"(0.0, 0.0, 0.0, 0.0, 0.0, 0.0, 0.0, 0.0, 0.0)",0.0,0.0,0.0,"(0.0, 0.0, 0.0, 0.0, 0.0, 0.0, 0.0, 0.0, 0.0)"
2018/12/16/17:23:05.875013,109631,1545002585,874782085,imu_link,-0.0423291446156,-0.0348688538524,0.692752134675,0.719087537405,"(0.02, 0.0, 0.0, 0.0, 0.02, 0.0, 0.0, 0.0, 0.02)",0.0,0.0,0.0,"(0.0, 0.0, 0.0, 0.0, 0.0, 0.0, 0.0, 0.0, 0.0)",0.0,0.0,0.0,"(0.0, 0.0, 0.0, 0.0, 0.0, 0.0, 0.0, 0.0, 0.0)"
2018/12/16/17:23:05.885093,109632,1545002585,884857892,imu_link,-0.0422975587438,-0.0349036631072,0.692736397212,0.719102868027,"(0.02, 0.0, 0.0, 0.0, 0.02, 0.0, 0.0, 0.0, 0.02)",0.0,0.0,0.0,"(0.0, 0.0, 0.0, 0.0, 0.0, 0.0, 0.0, 0.0, 0.0)",0.0,0.0,0.0,"(0.0, 0.0, 0.0, 0.0, 0.0, 0.0, 0.0, 0.0, 0.0)"
2018/12/16/17:23:05.895019,109633,1545002585,894828081,imu_link,-0.0422362758339,-0.0349158095376,0.692759831033,0.719083305156,"(0.02, 0.0, 0.0, 0.0, 0.02, 0.0, 0.0, 0.0, 0.02)",0.0,0.0,0.0,"(0.0, 0.0, 0.0, 0.0, 0.0, 0.0, 0.0, 0.0, 0.0)",0.0,0.0,0.0,"(0.0, 0.0, 0.0, 0.0, 0.0, 0.0, 0.0, 0.0, 0.0)"
2018/12/16/17:23:05.905257,109634,1545002585,904763936,imu_link,-0.0422400677846,-0.034942338986,0.692744228044,0.719096825282,"(0.02, 0.0, 0.0, 0.0, 0.02, 0.0, 0.0, 0.0, 0.02)",0.0,0.0,0.0,"(0.0, 0.0, 0.0, 0.0, 0.0, 0.0, 0.0, 0.0, 0.0)",0.0,0.0,0.0,"(0.0, 0.0, 0.0, 0.0, 0.0, 0.0, 0.0, 0.0, 0.0)"
2018/12/16/17:23:05.914968,109635,1545002585,914695024,imu_link,-0.0422281444461,-0.0349369921523,0.69271899796,0.719122089955,"(0.02, 0.0, 0.0, 0.0, 0.02, 0.0, 0.0, 0.0, 0.02)",0.0,0.0,0.0,"(0.0, 0.0, 0.0, 0.0, 0.0, 0.0, 0.0, 0.0, 0.0)",0.0,0.0,0.0,"(0.0, 0.0, 0.0, 0.0, 0.0, 0.0, 0.0, 0.0, 0.0)"
2018/12/16/17:23:05.925001,109636,1545002585,924786090,imu_link,-0.0422197549913,-0.0349450407242,0.692688911722,0.719151171865,"(0.02, 0.0, 0.0, 0.0, 0.02, 0.0, 0.0, 0.0, 0.02)",0.0,0.0,0.0,"(0.0, 0.0, 0.0, 0.0, 0.0, 0.0, 0.0, 0.0, 0.0)",0.0,0.0,0.0,"(0.0, 0.0, 0.0, 0.0, 0.0, 0.0, 0.0, 0.0, 0.0)"
2018/12/16/17:23:05.934990,109637,1545002585,934740066,imu_link,-0.0422190114071,-0.0349446953147,0.692661411381,0.719177719711,"(0.02, 0.0, 0.0, 0.0, 0.02, 0.0, 0.0, 0.0, 0.02)",0.0,0.0,0.0,"(0.0, 0.0, 0.0, 0.0, 0.0, 0.0, 0.0, 0.0, 0.0)",0.0,0.0,0.0,"(0.0, 0.0, 0.0, 0.0, 0.0, 0.0, 0.0, 0.0, 0.0)"
2018/12/16/17:23:05.944992,109638,1545002585,944763898,imu_link,-0.0421982421459,-0.0349614873825,0.692621752939,0.719216316636,"(0.02, 0.0, 0.0, 0.0, 0.02, 0.0, 0.0, 0.0, 0.02)",0.0,0.0,0.0,"(0.0, 0.0, 0.0, 0.0, 0.0, 0.0, 0.0, 0.0, 0.0)",0.0,0.0,0.0,"(0.0, 0.0, 0.0, 0.0, 0.0, 0.0, 0.0, 0.0, 0.0)"
2018/12/16/17:23:05.954953,109639,1545002585,954726934,imu_link,-0.0422107316579,-0.0349823686115,0.692587893694,0.719247174153,"(0.02, 0.0, 0.0, 0.0, 0.02, 0.0, 0.0, 0.0, 0.02)",0.0,0.0,0.0,"(0.0, 0.0, 0.0, 0.0, 0.0, 0.0, 0.0, 0.0, 0.0)",0.0,0.0,0.0,"(0.0, 0.0, 0.0, 0.0, 0.0, 0.0, 0.0, 0.0, 0.0)"
2018/12/16/17:23:05.964992,109640,1545002585,964751005,imu_link,-0.0422406365133,-0.0350047328974,0.69254656287,0.719284127143,"(0.02, 0.0, 0.0, 0.0, 0.02, 0.0, 0.0, 0.0, 0.02)",0.0,0.0,0.0,"(0.0, 0.0, 0.0, 0.0, 0.0, 0.0, 0.0, 0.0, 0.0)",0.0,0.0,0.0,"(0.0, 0.0, 0.0, 0.0, 0.0, 0.0, 0.0, 0.0, 0.0)"
2018/12/16/17:23:05.974982,109641,1545002585,974720001,imu_link,-0.0422282392476,-0.035063040224,0.692505847442,0.719321214951,"(0.02, 0.0, 0.0, 0.0, 0.02, 0.0, 0.0, 0.0, 0.02)",0.0,0.0,0.0,"(0.0, 0.0, 0.0, 0.0, 0.0, 0.0, 0.0, 0.0, 0.0)",0.0,0.0,0.0,"(0.0, 0.0, 0.0, 0.0, 0.0, 0.0, 0.0, 0.0, 0.0)"
2018/12/16/17:23:05.984994,109642,1545002585,984812021,imu_link,-0.0422248248602,-0.0350831060496,0.692470721813,0.719354251581,"(0.02, 0.0, 0.0, 0.0, 0.02, 0.0, 0.0, 0.0, 0.02)",0.0,0.0,0.0,"(0.0, 0.0, 0.0, 0.0, 0.0, 0.0, 0.0, 0.0, 0.0)",0.0,0.0,0.0,"(0.0, 0.0, 0.0, 0.0, 0.0, 0.0, 0.0, 0.0, 0.0)"
2018/12/16/17:23:05.994941,109643,1545002585,994671106,imu_link,-0.0422707093528,-0.0350240167732,0.692415458646,0.719407629935,"(0.02, 0.0, 0.0, 0.0, 0.02, 0.0, 0.0, 0.0, 0.02)",0.0,0.0,0.0,"(0.0, 0.0, 0.0, 0.0, 0.0, 0.0, 0.0, 0.0, 0.0)",0.0,0.0,0.0,"(0.0, 0.0, 0.0, 0.0, 0.0, 0.0, 0.0, 0.0, 0.0)"
2018/12/16/17:23:06.005225,109644,1545002586,4826068,imu_link,-0.0422540883005,-0.0350214467906,0.69237614401,0.719446568894,"(0.02, 0.0, 0.0, 0.0, 0.02, 0.0, 0.0, 0.0, 0.02)",0.0,0.0,0.0,"(0.0, 0.0, 0.0, 0.0, 0.0, 0.0, 0.0, 0.0, 0.0)",0.0,0.0,0.0,"(0.0, 0.0, 0.0, 0.0, 0.0, 0.0, 0.0, 0.0, 0.0)"
2018/12/16/17:23:06.014848,109645,1545002586,14636039,imu_link,-0.0422209974074,-0.0350664338361,0.692323839665,0.719496652965,"(0.02, 0.0, 0.0, 0.0, 0.02, 0.0, 0.0, 0.0, 0.02)",0.0,0.0,0.0,"(0.0, 0.0, 0.0, 0.0, 0.0, 0.0, 0.0, 0.0, 0.0)",0.0,0.0,0.0,"(0.0, 0.0, 0.0, 0.0, 0.0, 0.0, 0.0, 0.0, 0.0)"
2018/12/16/17:23:06.025204,109646,1545002586,24964094,imu_link,-0.0422449040638,-0.0350504274615,0.692258781856,0.719558624824,"(0.02, 0.0, 0.0, 0.0, 0.02, 0.0, 0.0, 0.0, 0.02)",0.0,0.0,0.0,"(0.0, 0.0, 0.0, 0.0, 0.0, 0.0, 0.0, 0.0, 0.0)",0.0,0.0,0.0,"(0.0, 0.0, 0.0, 0.0, 0.0, 0.0, 0.0, 0.0, 0.0)"
2018/12/16/17:23:06.035207,109647,1545002586,34862995,imu_link,-0.0422750390216,-0.0350552109439,0.692204676757,0.719608670555,"(0.02, 0.0, 0.0, 0.0, 0.02, 0.0, 0.0, 0.0, 0.02)",0.0,0.0,0.0,"(0.0, 0.0, 0.0, 0.0, 0.0, 0.0, 0.0, 0.0, 0.0)",0.0,0.0,0.0,"(0.0, 0.0, 0.0, 0.0, 0.0, 0.0, 0.0, 0.0, 0.0)"
2018/12/16/17:23:06.045062,109648,1545002586,44841051,imu_link,-0.0422735396674,-0.0350419386656,0.69214600145,0.719665841245,"(0.02, 0.0, 0.0, 0.0, 0.02, 0.0, 0.0, 0.0, 0.02)",0.0,0.0,0.0,"(0.0, 0.0, 0.0, 0.0, 0.0, 0.0, 0.0, 0.0, 0.0)",0.0,0.0,0.0,"(0.0, 0.0, 0.0, 0.0, 0.0, 0.0, 0.0, 0.0, 0.0)"
2018/12/16/17:23:06.054961,109649,1545002586,54776906,imu_link,-0.0422336631957,-0.0350529956124,0.692105207717,0.719706875501,"(0.02, 0.0, 0.0, 0.0, 0.02, 0.0, 0.0, 0.0, 0.02)",0.0,0.0,0.0,"(0.0, 0.0, 0.0, 0.0, 0.0, 0.0, 0.0, 0.0, 0.0)",0.0,0.0,0.0,"(0.0, 0.0, 0.0, 0.0, 0.0, 0.0, 0.0, 0.0, 0.0)"
2018/12/16/17:23:06.065196,109650,1545002586,64929008,imu_link,-0.0422203546855,-0.035014293045,0.692052908804,0.71975982963,"(0.02, 0.0, 0.0, 0.0, 0.02, 0.0, 0.0, 0.0, 0.02)",0.0,0.0,0.0,"(0.0, 0.0, 0.0, 0.0, 0.0, 0.0, 0.0, 0.0, 0.0)",0.0,0.0,0.0,"(0.0, 0.0, 0.0, 0.0, 0.0, 0.0, 0.0, 0.0, 0.0)"
2018/12/16/17:23:06.075004,109651,1545002586,74775934,imu_link,-0.0421733115418,-0.0349723317875,0.6919990816,0.719816378577,"(0.02, 0.0, 0.0, 0.0, 0.02, 0.0, 0.0, 0.0, 0.02)",0.0,0.0,0.0,"(0.0, 0.0, 0.0, 0.0, 0.0, 0.0, 0.0, 0.0, 0.0)",0.0,0.0,0.0,"(0.0, 0.0, 0.0, 0.0, 0.0, 0.0, 0.0, 0.0, 0.0)"
2018/12/16/17:23:06.085035,109652,1545002586,84822893,imu_link,-0.0421577232106,-0.0349426131725,0.691943190749,0.719872461575,"(0.02, 0.0, 0.0, 0.0, 0.02, 0.0, 0.0, 0.0, 0.02)",0.0,0.0,0.0,"(0.0, 0.0, 0.0, 0.0, 0.0, 0.0, 0.0, 0.0, 0.0)",0.0,0.0,0.0,"(0.0, 0.0, 0.0, 0.0, 0.0, 0.0, 0.0, 0.0, 0.0)"
2018/12/16/17:23:06.094995,109653,1545002586,94742059,imu_link,-0.0421074331686,-0.0348898276352,0.691900378721,0.71991911346,"(0.02, 0.0, 0.0, 0.0, 0.02, 0.0, 0.0, 0.0, 0.02)",0.0,0.0,0.0,"(0.0, 0.0, 0.0, 0.0, 0.0, 0.0, 0.0, 0.0, 0.0)",0.0,0.0,0.0,"(0.0, 0.0, 0.0, 0.0, 0.0, 0.0, 0.0, 0.0, 0.0)"
2018/12/16/17:23:06.105203,109654,1545002586,104883909,imu_link,-0.0420425163726,-0.0348888947862,0.691848013239,0.719973276181,"(0.02, 0.0, 0.0, 0.0, 0.02, 0.0, 0.0, 0.0, 0.02)",0.0,0.0,0.0,"(0.0, 0.0, 0.0, 0.0, 0.0, 0.0, 0.0, 0.0, 0.0)",0.0,0.0,0.0,"(0.0, 0.0, 0.0, 0.0, 0.0, 0.0, 0.0, 0.0, 0.0)"
2018/12/16/17:23:06.115057,109655,1545002586,114806890,imu_link,-0.0420376390303,-0.0348396238749,0.691805694551,0.720016609878,"(0.02, 0.0, 0.0, 0.0, 0.02, 0.0, 0.0, 0.0, 0.02)",0.0,0.0,0.0,"(0.0, 0.0, 0.0, 0.0, 0.0, 0.0, 0.0, 0.0, 0.0)",0.0,0.0,0.0,"(0.0, 0.0, 0.0, 0.0, 0.0, 0.0, 0.0, 0.0, 0.0)"
2018/12/16/17:23:06.124955,109656,1545002586,124803066,imu_link,-0.0420169565749,-0.0347679990018,0.691759350334,0.720065804515,"(0.02, 0.0, 0.0, 0.0, 0.02, 0.0, 0.0, 0.0, 0.02)",0.0,0.0,0.0,"(0.0, 0.0, 0.0, 0.0, 0.0, 0.0, 0.0, 0.0, 0.0)",0.0,0.0,0.0,"(0.0, 0.0, 0.0, 0.0, 0.0, 0.0, 0.0, 0.0, 0.0)"
2018/12/16/17:23:06.134976,109657,1545002586,134792089,imu_link,-0.0419746883326,-0.0347137179267,0.691729526112,0.720099538975,"(0.02, 0.0, 0.0, 0.0, 0.02, 0.0, 0.0, 0.0, 0.02)",0.0,0.0,0.0,"(0.0, 0.0, 0.0, 0.0, 0.0, 0.0, 0.0, 0.0, 0.0)",0.0,0.0,0.0,"(0.0, 0.0, 0.0, 0.0, 0.0, 0.0, 0.0, 0.0, 0.0)"
2018/12/16/17:23:06.145024,109658,1545002586,144869089,imu_link,-0.0419343714301,-0.0346206354625,0.691689144083,0.720145157625,"(0.02, 0.0, 0.0, 0.0, 0.02, 0.0, 0.0, 0.0, 0.02)",0.0,0.0,0.0,"(0.0, 0.0, 0.0, 0.0, 0.0, 0.0, 0.0, 0.0, 0.0)",0.0,0.0,0.0,"(0.0, 0.0, 0.0, 0.0, 0.0, 0.0, 0.0, 0.0, 0.0)"
2018/12/16/17:23:06.155061,109659,1545002586,154814958,imu_link,-0.0417760840076,-0.0345878208089,0.691691101921,0.720154053644,"(0.02, 0.0, 0.0, 0.0, 0.02, 0.0, 0.0, 0.0, 0.02)",0.0,0.0,0.0,"(0.0, 0.0, 0.0, 0.0, 0.0, 0.0, 0.0, 0.0, 0.0)",0.0,0.0,0.0,"(0.0, 0.0, 0.0, 0.0, 0.0, 0.0, 0.0, 0.0, 0.0)"
2018/12/16/17:23:06.165023,109660,1545002586,164812088,imu_link,-0.0416912232558,-0.0345400453498,0.691665304077,0.720186041456,"(0.02, 0.0, 0.0, 0.0, 0.02, 0.0, 0.0, 0.0, 0.02)",0.0,0.0,0.0,"(0.0, 0.0, 0.0, 0.0, 0.0, 0.0, 0.0, 0.0, 0.0)",0.0,0.0,0.0,"(0.0, 0.0, 0.0, 0.0, 0.0, 0.0, 0.0, 0.0, 0.0)"
2018/12/16/17:23:06.175033,109661,1545002586,174841880,imu_link,-0.041660607772,-0.0344947867208,0.691644049683,0.720210394251,"(0.02, 0.0, 0.0, 0.0, 0.02, 0.0, 0.0, 0.0, 0.02)",0.0,0.0,0.0,"(0.0, 0.0, 0.0, 0.0, 0.0, 0.0, 0.0, 0.0, 0.0)",0.0,0.0,0.0,"(0.0, 0.0, 0.0, 0.0, 0.0, 0.0, 0.0, 0.0, 0.0)"
2018/12/16/17:23:06.185188,109662,1545002586,184942007,imu_link,-0.0415879156412,-0.0344566141642,0.691637531287,0.720222682459,"(0.02, 0.0, 0.0, 0.0, 0.02, 0.0, 0.0, 0.0, 0.02)",0.0,0.0,0.0,"(0.0, 0.0, 0.0, 0.0, 0.0, 0.0, 0.0, 0.0, 0.0)",0.0,0.0,0.0,"(0.0, 0.0, 0.0, 0.0, 0.0, 0.0, 0.0, 0.0, 0.0)"
2018/12/16/17:23:06.195057,109663,1545002586,194787025,imu_link,-0.0415103214459,-0.034393756588,0.691632723011,0.720234780597,"(0.02, 0.0, 0.0, 0.0, 0.02, 0.0, 0.0, 0.0, 0.02)",0.0,0.0,0.0,"(0.0, 0.0, 0.0, 0.0, 0.0, 0.0, 0.0, 0.0, 0.0)",0.0,0.0,0.0,"(0.0, 0.0, 0.0, 0.0, 0.0, 0.0, 0.0, 0.0, 0.0)"
2018/12/16/17:23:06.205142,109664,1545002586,204864978,imu_link,-0.0414361379819,-0.0343508231656,0.691622396342,0.72025101756,"(0.02, 0.0, 0.0, 0.0, 0.02, 0.0, 0.0, 0.0, 0.02)",0.0,0.0,0.0,"(0.0, 0.0, 0.0, 0.0, 0.0, 0.0, 0.0, 0.0, 0.0)",0.0,0.0,0.0,"(0.0, 0.0, 0.0, 0.0, 0.0, 0.0, 0.0, 0.0, 0.0)"
2018/12/16/17:23:06.215110,109665,1545002586,214876890,imu_link,-0.041336540304,-0.0342552504539,0.691613141867,0.720270178648,"(0.02, 0.0, 0.0, 0.0, 0.02, 0.0, 0.0, 0.0, 0.02)",0.0,0.0,0.0,"(0.0, 0.0, 0.0, 0.0, 0.0, 0.0, 0.0, 0.0, 0.0)",0.0,0.0,0.0,"(0.0, 0.0, 0.0, 0.0, 0.0, 0.0, 0.0, 0.0, 0.0)"
2018/12/16/17:23:06.225002,109666,1545002586,224785089,imu_link,-0.0412257037413,-0.0342014229492,0.691634889274,0.72025820645,"(0.02, 0.0, 0.0, 0.0, 0.02, 0.0, 0.0, 0.0, 0.02)",0.0,0.0,0.0,"(0.0, 0.0, 0.0, 0.0, 0.0, 0.0, 0.0, 0.0, 0.0)",0.0,0.0,0.0,"(0.0, 0.0, 0.0, 0.0, 0.0, 0.0, 0.0, 0.0, 0.0)"
2018/12/16/17:23:06.234933,109667,1545002586,234735012,imu_link,-0.0412169722222,-0.0340756745814,0.691628179397,0.720271109421,"(0.02, 0.0, 0.0, 0.0, 0.02, 0.0, 0.0, 0.0, 0.02)",0.0,0.0,0.0,"(0.0, 0.0, 0.0, 0.0, 0.0, 0.0, 0.0, 0.0, 0.0)",0.0,0.0,0.0,"(0.0, 0.0, 0.0, 0.0, 0.0, 0.0, 0.0, 0.0, 0.0)"
2018/12/16/17:23:06.244981,109668,1545002586,244776010,imu_link,-0.0411249998849,-0.0340768474413,0.691643255083,0.720261834718,"(0.02, 0.0, 0.0, 0.0, 0.02, 0.0, 0.0, 0.0, 0.02)",0.0,0.0,0.0,"(0.0, 0.0, 0.0, 0.0, 0.0, 0.0, 0.0, 0.0, 0.0)",0.0,0.0,0.0,"(0.0, 0.0, 0.0, 0.0, 0.0, 0.0, 0.0, 0.0, 0.0)"
2018/12/16/17:23:06.255095,109669,1545002586,254813909,imu_link,-0.0410435896039,-0.034081961974,0.691648423459,0.720261273391,"(0.02, 0.0, 0.0, 0.0, 0.02, 0.0, 0.0, 0.0, 0.02)",0.0,0.0,0.0,"(0.0, 0.0, 0.0, 0.0, 0.0, 0.0, 0.0, 0.0, 0.0)",0.0,0.0,0.0,"(0.0, 0.0, 0.0, 0.0, 0.0, 0.0, 0.0, 0.0, 0.0)"
2018/12/16/17:23:06.265231,109670,1545002586,265008926,imu_link,-0.0409994199633,-0.0340499829867,0.691659903224,0.720254277664,"(0.02, 0.0, 0.0, 0.0, 0.02, 0.0, 0.0, 0.0, 0.02)",0.0,0.0,0.0,"(0.0, 0.0, 0.0, 0.0, 0.0, 0.0, 0.0, 0.0, 0.0)",0.0,0.0,0.0,"(0.0, 0.0, 0.0, 0.0, 0.0, 0.0, 0.0, 0.0, 0.0)"
2018/12/16/17:23:06.275064,109671,1545002586,274854898,imu_link,-0.0409970606532,-0.0339799874322,0.69166624199,0.720251630449,"(0.02, 0.0, 0.0, 0.0, 0.02, 0.0, 0.0, 0.0, 0.02)",0.0,0.0,0.0,"(0.0, 0.0, 0.0, 0.0, 0.0, 0.0, 0.0, 0.0, 0.0)",0.0,0.0,0.0,"(0.0, 0.0, 0.0, 0.0, 0.0, 0.0, 0.0, 0.0, 0.0)"
2018/12/16/17:23:06.285141,109672,1545002586,284914016,imu_link,-0.0409391076854,-0.0339999455228,0.691664431252,0.720255723828,"(0.02, 0.0, 0.0, 0.0, 0.02, 0.0, 0.0, 0.0, 0.02)",0.0,0.0,0.0,"(0.0, 0.0, 0.0, 0.0, 0.0, 0.0, 0.0, 0.0, 0.0)",0.0,0.0,0.0,"(0.0, 0.0, 0.0, 0.0, 0.0, 0.0, 0.0, 0.0, 0.0)"
2018/12/16/17:23:06.294913,109673,1545002586,294722080,imu_link,-0.0409016353885,-0.0340034886666,0.69167723449,0.720245390314,"(0.02, 0.0, 0.0, 0.0, 0.02, 0.0, 0.0, 0.0, 0.02)",0.0,0.0,0.0,"(0.0, 0.0, 0.0, 0.0, 0.0, 0.0, 0.0, 0.0, 0.0)",0.0,0.0,0.0,"(0.0, 0.0, 0.0, 0.0, 0.0, 0.0, 0.0, 0.0, 0.0)"
2018/12/16/17:23:06.305400,109674,1545002586,305022954,imu_link,-0.0408656848168,-0.0339775436016,0.691685144189,0.720241059399,"(0.02, 0.0, 0.0, 0.0, 0.02, 0.0, 0.0, 0.0, 0.02)",0.0,0.0,0.0,"(0.0, 0.0, 0.0, 0.0, 0.0, 0.0, 0.0, 0.0, 0.0)",0.0,0.0,0.0,"(0.0, 0.0, 0.0, 0.0, 0.0, 0.0, 0.0, 0.0, 0.0)"
2018/12/16/17:23:06.315187,109675,1545002586,314965009,imu_link,-0.0408583096985,-0.0339491752556,0.691698033369,0.720230437195,"(0.02, 0.0, 0.0, 0.0, 0.02, 0.0, 0.0, 0.0, 0.02)",0.0,0.0,0.0,"(0.0, 0.0, 0.0, 0.0, 0.0, 0.0, 0.0, 0.0, 0.0)",0.0,0.0,0.0,"(0.0, 0.0, 0.0, 0.0, 0.0, 0.0, 0.0, 0.0, 0.0)"
2018/12/16/17:23:06.325026,109676,1545002586,324805974,imu_link,-0.0408383345733,-0.0339244731223,0.691708334517,0.720222840871,"(0.02, 0.0, 0.0, 0.0, 0.02, 0.0, 0.0, 0.0, 0.02)",0.0,0.0,0.0,"(0.0, 0.0, 0.0, 0.0, 0.0, 0.0, 0.0, 0.0, 0.0)",0.0,0.0,0.0,"(0.0, 0.0, 0.0, 0.0, 0.0, 0.0, 0.0, 0.0, 0.0)"
2018/12/16/17:23:06.335086,109677,1545002586,334811925,imu_link,-0.0408062529362,-0.0338685447121,0.691730890366,0.720205628077,"(0.02, 0.0, 0.0, 0.0, 0.02, 0.0, 0.0, 0.0, 0.02)",0.0,0.0,0.0,"(0.0, 0.0, 0.0, 0.0, 0.0, 0.0, 0.0, 0.0, 0.0)",0.0,0.0,0.0,"(0.0, 0.0, 0.0, 0.0, 0.0, 0.0, 0.0, 0.0, 0.0)"
2018/12/16/17:23:06.345096,109678,1545002586,344842910,imu_link,-0.0407810922569,-0.0338392122504,0.691751608329,0.720188532679,"(0.02, 0.0, 0.0, 0.0, 0.02, 0.0, 0.0, 0.0, 0.02)",0.0,0.0,0.0,"(0.0, 0.0, 0.0, 0.0, 0.0, 0.0, 0.0, 0.0, 0.0)",0.0,0.0,0.0,"(0.0, 0.0, 0.0, 0.0, 0.0, 0.0, 0.0, 0.0, 0.0)"
2018/12/16/17:23:06.355150,109679,1545002586,354794025,imu_link,-0.0407560086987,-0.0337930407078,0.691768678412,0.720175724197,"(0.02, 0.0, 0.0, 0.0, 0.02, 0.0, 0.0, 0.0, 0.02)",0.0,0.0,0.0,"(0.0, 0.0, 0.0, 0.0, 0.0, 0.0, 0.0, 0.0, 0.0)",0.0,0.0,0.0,"(0.0, 0.0, 0.0, 0.0, 0.0, 0.0, 0.0, 0.0, 0.0)"
2018/12/16/17:23:06.365361,109680,1545002586,364924907,imu_link,-0.0407552159351,-0.0337952379132,0.691786937683,0.72015812647,"(0.02, 0.0, 0.0, 0.0, 0.02, 0.0, 0.0, 0.0, 0.02)",0.0,0.0,0.0,"(0.0, 0.0, 0.0, 0.0, 0.0, 0.0, 0.0, 0.0, 0.0)",0.0,0.0,0.0,"(0.0, 0.0, 0.0, 0.0, 0.0, 0.0, 0.0, 0.0, 0.0)"
2018/12/16/17:23:06.375214,109681,1545002586,374965906,imu_link,-0.0407721114066,-0.0338181611932,0.691792403411,0.720150843565,"(0.02, 0.0, 0.0, 0.0, 0.02, 0.0, 0.0, 0.0, 0.02)",0.0,0.0,0.0,"(0.0, 0.0, 0.0, 0.0, 0.0, 0.0, 0.0, 0.0, 0.0)",0.0,0.0,0.0,"(0.0, 0.0, 0.0, 0.0, 0.0, 0.0, 0.0, 0.0, 0.0)"
2018/12/16/17:23:06.385038,109682,1545002586,384825944,imu_link,-0.0407960958883,-0.0338259026404,0.691785969262,0.72015530242,"(0.02, 0.0, 0.0, 0.0, 0.02, 0.0, 0.0, 0.0, 0.02)",0.0,0.0,0.0,"(0.0, 0.0, 0.0, 0.0, 0.0, 0.0, 0.0, 0.0, 0.0)",0.0,0.0,0.0,"(0.0, 0.0, 0.0, 0.0, 0.0, 0.0, 0.0, 0.0, 0.0)"
2018/12/16/17:23:06.395301,109683,1545002586,395011901,imu_link,-0.0407577475803,-0.0337980514908,0.691862090932,0.720085651058,"(0.02, 0.0, 0.0, 0.0, 0.02, 0.0, 0.0, 0.0, 0.02)",0.0,0.0,0.0,"(0.0, 0.0, 0.0, 0.0, 0.0, 0.0, 0.0, 0.0, 0.0)",0.0,0.0,0.0,"(0.0, 0.0, 0.0, 0.0, 0.0, 0.0, 0.0, 0.0, 0.0)"
2018/12/16/17:23:06.405038,109684,1545002586,404823064,imu_link,-0.0407814707343,-0.0338062478886,0.691862029392,0.720083982278,"(0.02, 0.0, 0.0, 0.0, 0.02, 0.0, 0.0, 0.0, 0.02)",0.0,0.0,0.0,"(0.0, 0.0, 0.0, 0.0, 0.0, 0.0, 0.0, 0.0, 0.0)",0.0,0.0,0.0,"(0.0, 0.0, 0.0, 0.0, 0.0, 0.0, 0.0, 0.0, 0.0)"
2018/12/16/17:23:06.414948,109685,1545002586,414715051,imu_link,-0.0408325309183,-0.0338223606002,0.691894178635,0.720049441298,"(0.02, 0.0, 0.0, 0.0, 0.02, 0.0, 0.0, 0.0, 0.02)",0.0,0.0,0.0,"(0.0, 0.0, 0.0, 0.0, 0.0, 0.0, 0.0, 0.0, 0.0)",0.0,0.0,0.0,"(0.0, 0.0, 0.0, 0.0, 0.0, 0.0, 0.0, 0.0, 0.0)"
2018/12/16/17:23:06.425101,109686,1545002586,424871921,imu_link,-0.0408879068935,-0.0338710520221,0.69191919916,0.720019966903,"(0.02, 0.0, 0.0, 0.0, 0.02, 0.0, 0.0, 0.0, 0.02)",0.0,0.0,0.0,"(0.0, 0.0, 0.0, 0.0, 0.0, 0.0, 0.0, 0.0, 0.0)",0.0,0.0,0.0,"(0.0, 0.0, 0.0, 0.0, 0.0, 0.0, 0.0, 0.0, 0.0)"
2018/12/16/17:23:06.435092,109687,1545002586,434830904,imu_link,-0.0409538956389,-0.0339312960705,0.691931198368,0.72000184882,"(0.02, 0.0, 0.0, 0.0, 0.02, 0.0, 0.0, 0.0, 0.02)",0.0,0.0,0.0,"(0.0, 0.0, 0.0, 0.0, 0.0, 0.0, 0.0, 0.0, 0.0)",0.0,0.0,0.0,"(0.0, 0.0, 0.0, 0.0, 0.0, 0.0, 0.0, 0.0, 0.0)"
2018/12/16/17:23:06.445029,109688,1545002586,444799900,imu_link,-0.0409563266318,-0.0339492430783,0.691949207397,0.719983557163,"(0.02, 0.0, 0.0, 0.0, 0.02, 0.0, 0.0, 0.0, 0.02)",0.0,0.0,0.0,"(0.0, 0.0, 0.0, 0.0, 0.0, 0.0, 0.0, 0.0, 0.0)",0.0,0.0,0.0,"(0.0, 0.0, 0.0, 0.0, 0.0, 0.0, 0.0, 0.0, 0.0)"
2018/12/16/17:23:06.455035,109689,1545002586,454801082,imu_link,-0.0410056577558,-0.0339038381681,0.691973272443,0.719959759997,"(0.02, 0.0, 0.0, 0.0, 0.02, 0.0, 0.0, 0.0, 0.02)",0.0,0.0,0.0,"(0.0, 0.0, 0.0, 0.0, 0.0, 0.0, 0.0, 0.0, 0.0)",0.0,0.0,0.0,"(0.0, 0.0, 0.0, 0.0, 0.0, 0.0, 0.0, 0.0, 0.0)"
2018/12/16/17:23:06.465031,109690,1545002586,464821100,imu_link,-0.0410368092894,-0.0339469833903,0.691986536884,0.719943202881,"(0.02, 0.0, 0.0, 0.0, 0.02, 0.0, 0.0, 0.0, 0.02)",0.0,0.0,0.0,"(0.0, 0.0, 0.0, 0.0, 0.0, 0.0, 0.0, 0.0, 0.0)",0.0,0.0,0.0,"(0.0, 0.0, 0.0, 0.0, 0.0, 0.0, 0.0, 0.0, 0.0)"
2018/12/16/17:23:06.475021,109691,1545002586,474809885,imu_link,-0.0410350057935,-0.0340694597466,0.692001743332,0.719922903815,"(0.02, 0.0, 0.0, 0.0, 0.02, 0.0, 0.0, 0.0, 0.02)",0.0,0.0,0.0,"(0.0, 0.0, 0.0, 0.0, 0.0, 0.0, 0.0, 0.0, 0.0)",0.0,0.0,0.0,"(0.0, 0.0, 0.0, 0.0, 0.0, 0.0, 0.0, 0.0, 0.0)"
2018/12/16/17:23:06.485143,109692,1545002586,484972000,imu_link,-0.0411016771143,-0.034097622657,0.692035978945,0.719884857538,"(0.02, 0.0, 0.0, 0.0, 0.02, 0.0, 0.0, 0.0, 0.02)",0.0,0.0,0.0,"(0.0, 0.0, 0.0, 0.0, 0.0, 0.0, 0.0, 0.0, 0.0)",0.0,0.0,0.0,"(0.0, 0.0, 0.0, 0.0, 0.0, 0.0, 0.0, 0.0, 0.0)"
2018/12/16/17:23:06.495082,109693,1545002586,494704961,imu_link,-0.0411229488813,-0.034106068729,0.692073390816,0.719847276077,"(0.02, 0.0, 0.0, 0.0, 0.02, 0.0, 0.0, 0.0, 0.02)",0.0,0.0,0.0,"(0.0, 0.0, 0.0, 0.0, 0.0, 0.0, 0.0, 0.0, 0.0)",0.0,0.0,0.0,"(0.0, 0.0, 0.0, 0.0, 0.0, 0.0, 0.0, 0.0, 0.0)"
2018/12/16/17:23:06.505059,109694,1545002586,504822969,imu_link,-0.0411015551882,-0.0341452051017,0.692100144248,0.719820920411,"(0.02, 0.0, 0.0, 0.0, 0.02, 0.0, 0.0, 0.0, 0.02)",0.0,0.0,0.0,"(0.0, 0.0, 0.0, 0.0, 0.0, 0.0, 0.0, 0.0, 0.0)",0.0,0.0,0.0,"(0.0, 0.0, 0.0, 0.0, 0.0, 0.0, 0.0, 0.0, 0.0)"
2018/12/16/17:23:06.515207,109695,1545002586,514786958,imu_link,-0.04112882732,-0.0341965215126,0.692121780888,0.719796122454,"(0.02, 0.0, 0.0, 0.0, 0.02, 0.0, 0.0, 0.0, 0.02)",0.0,0.0,0.0,"(0.0, 0.0, 0.0, 0.0, 0.0, 0.0, 0.0, 0.0, 0.0)",0.0,0.0,0.0,"(0.0, 0.0, 0.0, 0.0, 0.0, 0.0, 0.0, 0.0, 0.0)"
2018/12/16/17:23:06.525014,109696,1545002586,524831056,imu_link,-0.0410979181079,-0.0342304769904,0.692150513392,0.719768645041,"(0.02, 0.0, 0.0, 0.0, 0.02, 0.0, 0.0, 0.0, 0.02)",0.0,0.0,0.0,"(0.0, 0.0, 0.0, 0.0, 0.0, 0.0, 0.0, 0.0, 0.0)",0.0,0.0,0.0,"(0.0, 0.0, 0.0, 0.0, 0.0, 0.0, 0.0, 0.0, 0.0)"
2018/12/16/17:23:06.535212,109697,1545002586,534976005,imu_link,-0.0410910181728,-0.0341995446124,0.692175594091,0.719746390278,"(0.02, 0.0, 0.0, 0.0, 0.02, 0.0, 0.0, 0.0, 0.02)",0.0,0.0,0.0,"(0.0, 0.0, 0.0, 0.0, 0.0, 0.0, 0.0, 0.0, 0.0)",0.0,0.0,0.0,"(0.0, 0.0, 0.0, 0.0, 0.0, 0.0, 0.0, 0.0, 0.0)"
2018/12/16/17:23:06.545004,109698,1545002586,544800043,imu_link,-0.0410828371484,-0.0341823533028,0.692203740012,0.719720605185,"(0.02, 0.0, 0.0, 0.0, 0.02, 0.0, 0.0, 0.0, 0.02)",0.0,0.0,0.0,"(0.0, 0.0, 0.0, 0.0, 0.0, 0.0, 0.0, 0.0, 0.0)",0.0,0.0,0.0,"(0.0, 0.0, 0.0, 0.0, 0.0, 0.0, 0.0, 0.0, 0.0)"
2018/12/16/17:23:06.555187,109699,1545002586,554805040,imu_link,-0.04103839281,-0.0342163002506,0.692232804949,0.719693572894,"(0.02, 0.0, 0.0, 0.0, 0.02, 0.0, 0.0, 0.0, 0.02)",0.0,0.0,0.0,"(0.0, 0.0, 0.0, 0.0, 0.0, 0.0, 0.0, 0.0, 0.0)",0.0,0.0,0.0,"(0.0, 0.0, 0.0, 0.0, 0.0, 0.0, 0.0, 0.0, 0.0)"
2018/12/16/17:23:06.564995,109700,1545002586,564814090,imu_link,-0.0410132322567,-0.0342607157222,0.692264473806,0.719662432286,"(0.02, 0.0, 0.0, 0.0, 0.02, 0.0, 0.0, 0.0, 0.02)",0.0,0.0,0.0,"(0.0, 0.0, 0.0, 0.0, 0.0, 0.0, 0.0, 0.0, 0.0)",0.0,0.0,0.0,"(0.0, 0.0, 0.0, 0.0, 0.0, 0.0, 0.0, 0.0, 0.0)"
2018/12/16/17:23:06.575143,109701,1545002586,574879884,imu_link,-0.0409998319584,-0.0342415863279,0.692306262836,0.719623905928,"(0.02, 0.0, 0.0, 0.0, 0.02, 0.0, 0.0, 0.0, 0.02)",0.0,0.0,0.0,"(0.0, 0.0, 0.0, 0.0, 0.0, 0.0, 0.0, 0.0, 0.0)",0.0,0.0,0.0,"(0.0, 0.0, 0.0, 0.0, 0.0, 0.0, 0.0, 0.0, 0.0)"
2018/12/16/17:23:06.585056,109702,1545002586,584800004,imu_link,-0.0410099706428,-0.0342367126843,0.692334757571,0.719596145954,"(0.02, 0.0, 0.0, 0.0, 0.02, 0.0, 0.0, 0.0, 0.02)",0.0,0.0,0.0,"(0.0, 0.0, 0.0, 0.0, 0.0, 0.0, 0.0, 0.0, 0.0)",0.0,0.0,0.0,"(0.0, 0.0, 0.0, 0.0, 0.0, 0.0, 0.0, 0.0, 0.0)"
2018/12/16/17:23:06.595069,109703,1545002586,594893932,imu_link,-0.0409714752659,-0.0342571121162,0.692357810381,0.719575187794,"(0.02, 0.0, 0.0, 0.0, 0.02, 0.0, 0.0, 0.0, 0.02)",0.0,0.0,0.0,"(0.0, 0.0, 0.0, 0.0, 0.0, 0.0, 0.0, 0.0, 0.0)",0.0,0.0,0.0,"(0.0, 0.0, 0.0, 0.0, 0.0, 0.0, 0.0, 0.0, 0.0)"
2018/12/16/17:23:06.605055,109704,1545002586,604825973,imu_link,-0.0409626690288,-0.0342487953691,0.69237772755,0.719556920719,"(0.02, 0.0, 0.0, 0.0, 0.02, 0.0, 0.0, 0.0, 0.02)",0.0,0.0,0.0,"(0.0, 0.0, 0.0, 0.0, 0.0, 0.0, 0.0, 0.0, 0.0)",0.0,0.0,0.0,"(0.0, 0.0, 0.0, 0.0, 0.0, 0.0, 0.0, 0.0, 0.0)"
2018/12/16/17:23:06.614999,109705,1545002586,614797115,imu_link,-0.0409510576135,-0.0342464407916,0.692407772917,0.719528782035,"(0.02, 0.0, 0.0, 0.0, 0.02, 0.0, 0.0, 0.0, 0.02)",0.0,0.0,0.0,"(0.0, 0.0, 0.0, 0.0, 0.0, 0.0, 0.0, 0.0, 0.0)",0.0,0.0,0.0,"(0.0, 0.0, 0.0, 0.0, 0.0, 0.0, 0.0, 0.0, 0.0)"
2018/12/16/17:23:06.625041,109706,1545002586,624850034,imu_link,-0.0409352434057,-0.0342821851488,0.692428863764,0.71950768325,"(0.02, 0.0, 0.0, 0.0, 0.02, 0.0, 0.0, 0.0, 0.02)",0.0,0.0,0.0,"(0.0, 0.0, 0.0, 0.0, 0.0, 0.0, 0.0, 0.0, 0.0)",0.0,0.0,0.0,"(0.0, 0.0, 0.0, 0.0, 0.0, 0.0, 0.0, 0.0, 0.0)"
2018/12/16/17:23:06.635044,109707,1545002586,634828090,imu_link,-0.0408905863381,-0.0343178426523,0.692463162993,0.719475512803,"(0.02, 0.0, 0.0, 0.0, 0.02, 0.0, 0.0, 0.0, 0.02)",0.0,0.0,0.0,"(0.0, 0.0, 0.0, 0.0, 0.0, 0.0, 0.0, 0.0, 0.0)",0.0,0.0,0.0,"(0.0, 0.0, 0.0, 0.0, 0.0, 0.0, 0.0, 0.0, 0.0)"
2018/12/16/17:23:06.645054,109708,1545002586,644825935,imu_link,-0.0408841630736,-0.0343078528376,0.692485515353,0.719454840466,"(0.02, 0.0, 0.0, 0.0, 0.02, 0.0, 0.0, 0.0, 0.02)",0.0,0.0,0.0,"(0.0, 0.0, 0.0, 0.0, 0.0, 0.0, 0.0, 0.0, 0.0)",0.0,0.0,0.0,"(0.0, 0.0, 0.0, 0.0, 0.0, 0.0, 0.0, 0.0, 0.0)"
2018/12/16/17:23:06.655254,109709,1545002586,655067920,imu_link,-0.0408218172578,-0.034356533446,0.692534723522,0.719408690913,"(0.02, 0.0, 0.0, 0.0, 0.02, 0.0, 0.0, 0.0, 0.02)",0.0,0.0,0.0,"(0.0, 0.0, 0.0, 0.0, 0.0, 0.0, 0.0, 0.0, 0.0)",0.0,0.0,0.0,"(0.0, 0.0, 0.0, 0.0, 0.0, 0.0, 0.0, 0.0, 0.0)"
2018/12/16/17:23:06.665095,109710,1545002586,664869070,imu_link,-0.0408072515308,-0.0343967143324,0.69255784228,0.719385341359,"(0.02, 0.0, 0.0, 0.0, 0.02, 0.0, 0.0, 0.0, 0.02)",0.0,0.0,0.0,"(0.0, 0.0, 0.0, 0.0, 0.0, 0.0, 0.0, 0.0, 0.0)",0.0,0.0,0.0,"(0.0, 0.0, 0.0, 0.0, 0.0, 0.0, 0.0, 0.0, 0.0)"
2018/12/16/17:23:06.675136,109711,1545002586,674839973,imu_link,-0.0407978938459,-0.0344063020012,0.692581138718,0.719362985239,"(0.02, 0.0, 0.0, 0.0, 0.02, 0.0, 0.0, 0.0, 0.02)",0.0,0.0,0.0,"(0.0, 0.0, 0.0, 0.0, 0.0, 0.0, 0.0, 0.0, 0.0)",0.0,0.0,0.0,"(0.0, 0.0, 0.0, 0.0, 0.0, 0.0, 0.0, 0.0, 0.0)"
2018/12/16/17:23:06.685096,109712,1545002586,684850931,imu_link,-0.0407594418591,-0.034421636246,0.692607938317,0.719338628629,"(0.02, 0.0, 0.0, 0.0, 0.02, 0.0, 0.0, 0.0, 0.02)",0.0,0.0,0.0,"(0.0, 0.0, 0.0, 0.0, 0.0, 0.0, 0.0, 0.0, 0.0)",0.0,0.0,0.0,"(0.0, 0.0, 0.0, 0.0, 0.0, 0.0, 0.0, 0.0, 0.0)"
2018/12/16/17:23:06.694993,109713,1545002586,694786071,imu_link,-0.040705037131,-0.0344537983098,0.69262962108,0.719319291926,"(0.02, 0.0, 0.0, 0.0, 0.02, 0.0, 0.0, 0.0, 0.02)",0.0,0.0,0.0,"(0.0, 0.0, 0.0, 0.0, 0.0, 0.0, 0.0, 0.0, 0.0)",0.0,0.0,0.0,"(0.0, 0.0, 0.0, 0.0, 0.0, 0.0, 0.0, 0.0, 0.0)"
2018/12/16/17:23:06.705009,109714,1545002586,704828023,imu_link,-0.040669218236,-0.034510601785,0.692646327747,0.719302507789,"(0.02, 0.0, 0.0, 0.0, 0.02, 0.0, 0.0, 0.0, 0.02)",0.0,0.0,0.0,"(0.0, 0.0, 0.0, 0.0, 0.0, 0.0, 0.0, 0.0, 0.0)",0.0,0.0,0.0,"(0.0, 0.0, 0.0, 0.0, 0.0, 0.0, 0.0, 0.0, 0.0)"
2018/12/16/17:23:06.714948,109715,1545002586,714772939,imu_link,-0.040619054071,-0.034572906791,0.692656653368,0.719292407236,"(0.02, 0.0, 0.0, 0.0, 0.02, 0.0, 0.0, 0.0, 0.02)",0.0,0.0,0.0,"(0.0, 0.0, 0.0, 0.0, 0.0, 0.0, 0.0, 0.0, 0.0)",0.0,0.0,0.0,"(0.0, 0.0, 0.0, 0.0, 0.0, 0.0, 0.0, 0.0, 0.0)"
2018/12/16/17:23:06.725051,109716,1545002586,724873065,imu_link,-0.0405372958415,-0.0346284345127,0.692677058461,0.719274698464,"(0.02, 0.0, 0.0, 0.0, 0.02, 0.0, 0.0, 0.0, 0.02)",0.0,0.0,0.0,"(0.0, 0.0, 0.0, 0.0, 0.0, 0.0, 0.0, 0.0, 0.0)",0.0,0.0,0.0,"(0.0, 0.0, 0.0, 0.0, 0.0, 0.0, 0.0, 0.0, 0.0)"
2018/12/16/17:23:06.735186,109717,1545002586,734849929,imu_link,-0.0405577305295,-0.0346082259892,0.69268191538,0.719269841779,"(0.02, 0.0, 0.0, 0.0, 0.02, 0.0, 0.0, 0.0, 0.02)",0.0,0.0,0.0,"(0.0, 0.0, 0.0, 0.0, 0.0, 0.0, 0.0, 0.0, 0.0)",0.0,0.0,0.0,"(0.0, 0.0, 0.0, 0.0, 0.0, 0.0, 0.0, 0.0, 0.0)"
2018/12/16/17:23:06.745017,109718,1545002586,744807958,imu_link,-0.0405209295753,-0.0345794506911,0.692716967493,0.719239542019,"(0.02, 0.0, 0.0, 0.0, 0.02, 0.0, 0.0, 0.0, 0.02)",0.0,0.0,0.0,"(0.0, 0.0, 0.0, 0.0, 0.0, 0.0, 0.0, 0.0, 0.0)",0.0,0.0,0.0,"(0.0, 0.0, 0.0, 0.0, 0.0, 0.0, 0.0, 0.0, 0.0)"
2018/12/16/17:23:06.755395,109719,1545002586,755017995,imu_link,-0.0404652540868,-0.0345681076049,0.692718728858,0.719241525385,"(0.02, 0.0, 0.0, 0.0, 0.02, 0.0, 0.0, 0.0, 0.02)",0.0,0.0,0.0,"(0.0, 0.0, 0.0, 0.0, 0.0, 0.0, 0.0, 0.0, 0.0)",0.0,0.0,0.0,"(0.0, 0.0, 0.0, 0.0, 0.0, 0.0, 0.0, 0.0, 0.0)"
2018/12/16/17:23:06.765347,109720,1545002586,765026092,imu_link,-0.0404251517635,-0.0346020688811,0.692737529236,0.719224039867,"(0.02, 0.0, 0.0, 0.0, 0.02, 0.0, 0.0, 0.0, 0.02)",0.0,0.0,0.0,"(0.0, 0.0, 0.0, 0.0, 0.0, 0.0, 0.0, 0.0, 0.0)",0.0,0.0,0.0,"(0.0, 0.0, 0.0, 0.0, 0.0, 0.0, 0.0, 0.0, 0.0)"
2018/12/16/17:23:06.775090,109721,1545002586,774841070,imu_link,-0.0404163633801,-0.0345993169453,0.692755001111,0.719207837327,"(0.02, 0.0, 0.0, 0.0, 0.02, 0.0, 0.0, 0.0, 0.02)",0.0,0.0,0.0,"(0.0, 0.0, 0.0, 0.0, 0.0, 0.0, 0.0, 0.0, 0.0)",0.0,0.0,0.0,"(0.0, 0.0, 0.0, 0.0, 0.0, 0.0, 0.0, 0.0, 0.0)"
2018/12/16/17:23:06.785036,109722,1545002586,784840106,imu_link,-0.0403608014234,-0.034615733696,0.692769298401,0.719196395905,"(0.02, 0.0, 0.0, 0.0, 0.02, 0.0, 0.0, 0.0, 0.02)",0.0,0.0,0.0,"(0.0, 0.0, 0.0, 0.0, 0.0, 0.0, 0.0, 0.0, 0.0)",0.0,0.0,0.0,"(0.0, 0.0, 0.0, 0.0, 0.0, 0.0, 0.0, 0.0, 0.0)"
2018/12/16/17:23:06.795184,109723,1545002586,794898986,imu_link,-0.0403471722336,-0.0346357426411,0.692772712021,0.719192909103,"(0.02, 0.0, 0.0, 0.0, 0.02, 0.0, 0.0, 0.0, 0.02)",0.0,0.0,0.0,"(0.0, 0.0, 0.0, 0.0, 0.0, 0.0, 0.0, 0.0, 0.0)",0.0,0.0,0.0,"(0.0, 0.0, 0.0, 0.0, 0.0, 0.0, 0.0, 0.0, 0.0)"
2018/12/16/17:23:06.805082,109724,1545002586,804860115,imu_link,-0.0403564474979,-0.0346591015792,0.692779224922,0.719184989651,"(0.02, 0.0, 0.0, 0.0, 0.02, 0.0, 0.0, 0.0, 0.02)",0.0,0.0,0.0,"(0.0, 0.0, 0.0, 0.0, 0.0, 0.0, 0.0, 0.0, 0.0)",0.0,0.0,0.0,"(0.0, 0.0, 0.0, 0.0, 0.0, 0.0, 0.0, 0.0, 0.0)"
2018/12/16/17:23:06.815316,109725,1545002586,815071105,imu_link,-0.0403330423094,-0.0346807713348,0.692794028936,0.719170997238,"(0.02, 0.0, 0.0, 0.0, 0.02, 0.0, 0.0, 0.0, 0.02)",0.0,0.0,0.0,"(0.0, 0.0, 0.0, 0.0, 0.0, 0.0, 0.0, 0.0, 0.0)",0.0,0.0,0.0,"(0.0, 0.0, 0.0, 0.0, 0.0, 0.0, 0.0, 0.0, 0.0)"
2018/12/16/17:23:06.825007,109726,1545002586,824860095,imu_link,-0.0403121370526,-0.0347011631537,0.692803278616,0.719162275166,"(0.02, 0.0, 0.0, 0.0, 0.02, 0.0, 0.0, 0.0, 0.02)",0.0,0.0,0.0,"(0.0, 0.0, 0.0, 0.0, 0.0, 0.0, 0.0, 0.0, 0.0)",0.0,0.0,0.0,"(0.0, 0.0, 0.0, 0.0, 0.0, 0.0, 0.0, 0.0, 0.0)"
2018/12/16/17:23:06.835216,109727,1545002586,834882020,imu_link,-0.0403250059825,-0.0347243174382,0.692820123094,0.719144208561,"(0.02, 0.0, 0.0, 0.0, 0.02, 0.0, 0.0, 0.0, 0.02)",0.0,0.0,0.0,"(0.0, 0.0, 0.0, 0.0, 0.0, 0.0, 0.0, 0.0, 0.0)",0.0,0.0,0.0,"(0.0, 0.0, 0.0, 0.0, 0.0, 0.0, 0.0, 0.0, 0.0)"
2018/12/16/17:23:06.845114,109728,1545002586,844904899,imu_link,-0.0403305200405,-0.034758570752,0.692820754855,0.719141635949,"(0.02, 0.0, 0.0, 0.0, 0.02, 0.0, 0.0, 0.0, 0.02)",0.0,0.0,0.0,"(0.0, 0.0, 0.0, 0.0, 0.0, 0.0, 0.0, 0.0, 0.0)",0.0,0.0,0.0,"(0.0, 0.0, 0.0, 0.0, 0.0, 0.0, 0.0, 0.0, 0.0)"
2018/12/16/17:23:06.854994,109729,1545002586,854818105,imu_link,-0.0402969953919,-0.0347829206323,0.692848911012,0.719115211287,"(0.02, 0.0, 0.0, 0.0, 0.02, 0.0, 0.0, 0.0, 0.02)",0.0,0.0,0.0,"(0.0, 0.0, 0.0, 0.0, 0.0, 0.0, 0.0, 0.0, 0.0)",0.0,0.0,0.0,"(0.0, 0.0, 0.0, 0.0, 0.0, 0.0, 0.0, 0.0, 0.0)"
2018/12/16/17:23:06.865182,109730,1545002586,864917039,imu_link,-0.0402896179679,-0.0348094742713,0.692852230915,0.719111141133,"(0.02, 0.0, 0.0, 0.0, 0.02, 0.0, 0.0, 0.0, 0.02)",0.0,0.0,0.0,"(0.0, 0.0, 0.0, 0.0, 0.0, 0.0, 0.0, 0.0, 0.0)",0.0,0.0,0.0,"(0.0, 0.0, 0.0, 0.0, 0.0, 0.0, 0.0, 0.0, 0.0)"
2018/12/16/17:23:06.875111,109731,1545002586,874914884,imu_link,-0.0403210835804,-0.0347953958015,0.692857840417,0.719104654152,"(0.02, 0.0, 0.0, 0.0, 0.02, 0.0, 0.0, 0.0, 0.02)",0.0,0.0,0.0,"(0.0, 0.0, 0.0, 0.0, 0.0, 0.0, 0.0, 0.0, 0.0)",0.0,0.0,0.0,"(0.0, 0.0, 0.0, 0.0, 0.0, 0.0, 0.0, 0.0, 0.0)"
2018/12/16/17:23:06.885086,109732,1545002586,884879112,imu_link,-0.0403115512225,-0.034822303201,0.692864838694,0.719097143187,"(0.02, 0.0, 0.0, 0.0, 0.02, 0.0, 0.0, 0.0, 0.02)",0.0,0.0,0.0,"(0.0, 0.0, 0.0, 0.0, 0.0, 0.0, 0.0, 0.0, 0.0)",0.0,0.0,0.0,"(0.0, 0.0, 0.0, 0.0, 0.0, 0.0, 0.0, 0.0, 0.0)"
2018/12/16/17:23:06.895122,109733,1545002586,894906997,imu_link,-0.040174896688,-0.0348804356762,0.692921378846,0.719047491909,"(0.02, 0.0, 0.0, 0.0, 0.02, 0.0, 0.0, 0.0, 0.02)",0.0,0.0,0.0,"(0.0, 0.0, 0.0, 0.0, 0.0, 0.0, 0.0, 0.0, 0.0)",0.0,0.0,0.0,"(0.0, 0.0, 0.0, 0.0, 0.0, 0.0, 0.0, 0.0, 0.0)"
2018/12/16/17:23:06.905223,109734,1545002586,905045032,imu_link,-0.040126987669,-0.034902583289,0.692933506678,0.719037405052,"(0.02, 0.0, 0.0, 0.0, 0.02, 0.0, 0.0, 0.0, 0.02)",0.0,0.0,0.0,"(0.0, 0.0, 0.0, 0.0, 0.0, 0.0, 0.0, 0.0, 0.0)",0.0,0.0,0.0,"(0.0, 0.0, 0.0, 0.0, 0.0, 0.0, 0.0, 0.0, 0.0)"
2018/12/16/17:23:06.915009,109735,1545002586,914813995,imu_link,-0.0401502960519,-0.0348880131429,0.692931747908,0.719038505928,"(0.02, 0.0, 0.0, 0.0, 0.02, 0.0, 0.0, 0.0, 0.02)",0.0,0.0,0.0,"(0.0, 0.0, 0.0, 0.0, 0.0, 0.0, 0.0, 0.0, 0.0)",0.0,0.0,0.0,"(0.0, 0.0, 0.0, 0.0, 0.0, 0.0, 0.0, 0.0, 0.0)"
2018/12/16/17:23:06.925082,109736,1545002586,924863100,imu_link,-0.0401147869367,-0.0348811745493,0.692941354779,0.719031561455,"(0.02, 0.0, 0.0, 0.0, 0.02, 0.0, 0.0, 0.0, 0.02)",0.0,0.0,0.0,"(0.0, 0.0, 0.0, 0.0, 0.0, 0.0, 0.0, 0.0, 0.0)",0.0,0.0,0.0,"(0.0, 0.0, 0.0, 0.0, 0.0, 0.0, 0.0, 0.0, 0.0)"
2018/12/16/17:23:06.935407,109737,1545002586,935112953,imu_link,-0.0400929259594,-0.0349258547525,0.692945866407,0.719026263906,"(0.02, 0.0, 0.0, 0.0, 0.02, 0.0, 0.0, 0.0, 0.02)",0.0,0.0,0.0,"(0.0, 0.0, 0.0, 0.0, 0.0, 0.0, 0.0, 0.0, 0.0)",0.0,0.0,0.0,"(0.0, 0.0, 0.0, 0.0, 0.0, 0.0, 0.0, 0.0, 0.0)"
2018/12/16/17:23:06.945060,109738,1545002586,944855928,imu_link,-0.0400598019481,-0.0349167478767,0.692949971532,0.719024596199,"(0.02, 0.0, 0.0, 0.0, 0.02, 0.0, 0.0, 0.0, 0.02)",0.0,0.0,0.0,"(0.0, 0.0, 0.0, 0.0, 0.0, 0.0, 0.0, 0.0, 0.0)",0.0,0.0,0.0,"(0.0, 0.0, 0.0, 0.0, 0.0, 0.0, 0.0, 0.0, 0.0)"
2018/12/16/17:23:06.955509,109739,1545002586,955281019,imu_link,-0.0400413680553,-0.0348805462096,0.692948436153,0.719028859764,"(0.02, 0.0, 0.0, 0.0, 0.02, 0.0, 0.0, 0.0, 0.02)",0.0,0.0,0.0,"(0.0, 0.0, 0.0, 0.0, 0.0, 0.0, 0.0, 0.0, 0.0)",0.0,0.0,0.0,"(0.0, 0.0, 0.0, 0.0, 0.0, 0.0, 0.0, 0.0, 0.0)"
2018/12/16/17:23:06.965497,109740,1545002586,965203046,imu_link,-0.0400445129995,-0.0348360825142,0.692941748484,0.719037285224,"(0.02, 0.0, 0.0, 0.0, 0.02, 0.0, 0.0, 0.0, 0.02)",0.0,0.0,0.0,"(0.0, 0.0, 0.0, 0.0, 0.0, 0.0, 0.0, 0.0, 0.0)",0.0,0.0,0.0,"(0.0, 0.0, 0.0, 0.0, 0.0, 0.0, 0.0, 0.0, 0.0)"
2018/12/16/17:23:06.975160,109741,1545002586,974920034,imu_link,-0.0400429143677,-0.034829185118,0.692932542239,0.719046580396,"(0.02, 0.0, 0.0, 0.0, 0.02, 0.0, 0.0, 0.0, 0.02)",0.0,0.0,0.0,"(0.0, 0.0, 0.0, 0.0, 0.0, 0.0, 0.0, 0.0, 0.0)",0.0,0.0,0.0,"(0.0, 0.0, 0.0, 0.0, 0.0, 0.0, 0.0, 0.0, 0.0)"
2018/12/16/17:23:06.985137,109742,1545002586,984941005,imu_link,-0.039971416218,-0.0348009790109,0.692930738623,0.719053662265,"(0.02, 0.0, 0.0, 0.0, 0.02, 0.0, 0.0, 0.0, 0.02)",0.0,0.0,0.0,"(0.0, 0.0, 0.0, 0.0, 0.0, 0.0, 0.0, 0.0, 0.0)",0.0,0.0,0.0,"(0.0, 0.0, 0.0, 0.0, 0.0, 0.0, 0.0, 0.0, 0.0)"
2018/12/16/17:23:06.995333,109743,1545002586,994990110,imu_link,-0.0399679701143,-0.0347157455831,0.692922540502,0.71906587406,"(0.02, 0.0, 0.0, 0.0, 0.02, 0.0, 0.0, 0.0, 0.02)",0.0,0.0,0.0,"(0.0, 0.0, 0.0, 0.0, 0.0, 0.0, 0.0, 0.0, 0.0)",0.0,0.0,0.0,"(0.0, 0.0, 0.0, 0.0, 0.0, 0.0, 0.0, 0.0, 0.0)"
2018/12/16/17:23:07.005204,109744,1545002587,4941940,imu_link,-0.0399757908676,-0.0346767247808,0.692908800411,0.719080562396,"(0.02, 0.0, 0.0, 0.0, 0.02, 0.0, 0.0, 0.0, 0.02)",0.0,0.0,0.0,"(0.0, 0.0, 0.0, 0.0, 0.0, 0.0, 0.0, 0.0, 0.0)",0.0,0.0,0.0,"(0.0, 0.0, 0.0, 0.0, 0.0, 0.0, 0.0, 0.0, 0.0)"
2018/12/16/17:23:07.015206,109745,1545002587,14851093,imu_link,-0.0399617900686,-0.0347138773625,0.692903766063,0.7190843991,"(0.02, 0.0, 0.0, 0.0, 0.02, 0.0, 0.0, 0.0, 0.02)",0.0,0.0,0.0,"(0.0, 0.0, 0.0, 0.0, 0.0, 0.0, 0.0, 0.0, 0.0)",0.0,0.0,0.0,"(0.0, 0.0, 0.0, 0.0, 0.0, 0.0, 0.0, 0.0, 0.0)"
2018/12/16/17:23:07.025141,109746,1545002587,24871110,imu_link,-0.039967262011,-0.0347363761214,0.692899660089,0.71908696497,"(0.02, 0.0, 0.0, 0.0, 0.02, 0.0, 0.0, 0.0, 0.02)",0.0,0.0,0.0,"(0.0, 0.0, 0.0, 0.0, 0.0, 0.0, 0.0, 0.0, 0.0)",0.0,0.0,0.0,"(0.0, 0.0, 0.0, 0.0, 0.0, 0.0, 0.0, 0.0, 0.0)"
2018/12/16/17:23:07.035228,109747,1545002587,34898042,imu_link,-0.0400124254971,-0.0346494373582,0.692907051644,0.719081525336,"(0.02, 0.0, 0.0, 0.0, 0.02, 0.0, 0.0, 0.0, 0.02)",0.0,0.0,0.0,"(0.0, 0.0, 0.0, 0.0, 0.0, 0.0, 0.0, 0.0, 0.0)",0.0,0.0,0.0,"(0.0, 0.0, 0.0, 0.0, 0.0, 0.0, 0.0, 0.0, 0.0)"
2018/12/16/17:23:07.045151,109748,1545002587,44918060,imu_link,-0.0400310178929,-0.034603147285,0.69289832971,0.719091123912,"(0.02, 0.0, 0.0, 0.0, 0.02, 0.0, 0.0, 0.0, 0.02)",0.0,0.0,0.0,"(0.0, 0.0, 0.0, 0.0, 0.0, 0.0, 0.0, 0.0, 0.0)",0.0,0.0,0.0,"(0.0, 0.0, 0.0, 0.0, 0.0, 0.0, 0.0, 0.0, 0.0)"
2018/12/16/17:23:07.055266,109749,1545002587,55001974,imu_link,-0.0400398482223,-0.034618709577,0.69289279856,0.719095212893,"(0.02, 0.0, 0.0, 0.0, 0.02, 0.0, 0.0, 0.0, 0.02)",0.0,0.0,0.0,"(0.0, 0.0, 0.0, 0.0, 0.0, 0.0, 0.0, 0.0, 0.0)",0.0,0.0,0.0,"(0.0, 0.0, 0.0, 0.0, 0.0, 0.0, 0.0, 0.0, 0.0)"
2018/12/16/17:23:07.065131,109750,1545002587,64918041,imu_link,-0.0400280589496,-0.0346246197103,0.692893509556,0.719094899593,"(0.02, 0.0, 0.0, 0.0, 0.02, 0.0, 0.0, 0.0, 0.02)",0.0,0.0,0.0,"(0.0, 0.0, 0.0, 0.0, 0.0, 0.0, 0.0, 0.0, 0.0)",0.0,0.0,0.0,"(0.0, 0.0, 0.0, 0.0, 0.0, 0.0, 0.0, 0.0, 0.0)"
2018/12/16/17:23:07.075133,109751,1545002587,74892997,imu_link,-0.0400794029544,-0.0345937420943,0.692888723437,0.719098137531,"(0.02, 0.0, 0.0, 0.0, 0.02, 0.0, 0.0, 0.0, 0.02)",0.0,0.0,0.0,"(0.0, 0.0, 0.0, 0.0, 0.0, 0.0, 0.0, 0.0, 0.0)",0.0,0.0,0.0,"(0.0, 0.0, 0.0, 0.0, 0.0, 0.0, 0.0, 0.0, 0.0)"
2018/12/16/17:23:07.085183,109752,1545002587,84929943,imu_link,-0.0401157826621,-0.0345328597338,0.692895276114,0.719092721365,"(0.02, 0.0, 0.0, 0.0, 0.02, 0.0, 0.0, 0.0, 0.02)",0.0,0.0,0.0,"(0.0, 0.0, 0.0, 0.0, 0.0, 0.0, 0.0, 0.0, 0.0)",0.0,0.0,0.0,"(0.0, 0.0, 0.0, 0.0, 0.0, 0.0, 0.0, 0.0, 0.0)"
2018/12/16/17:23:07.095098,109753,1545002587,94863891,imu_link,-0.040096930778,-0.0345085555945,0.69288539726,0.719104458334,"(0.02, 0.0, 0.0, 0.0, 0.02, 0.0, 0.0, 0.0, 0.02)",0.0,0.0,0.0,"(0.0, 0.0, 0.0, 0.0, 0.0, 0.0, 0.0, 0.0, 0.0)",0.0,0.0,0.0,"(0.0, 0.0, 0.0, 0.0, 0.0, 0.0, 0.0, 0.0, 0.0)"
2018/12/16/17:23:07.105492,109754,1545002587,105302095,imu_link,-0.0400668813679,-0.0345184771727,0.692874768219,0.71911589839,"(0.02, 0.0, 0.0, 0.0, 0.02, 0.0, 0.0, 0.0, 0.02)",0.0,0.0,0.0,"(0.0, 0.0, 0.0, 0.0, 0.0, 0.0, 0.0, 0.0, 0.0)",0.0,0.0,0.0,"(0.0, 0.0, 0.0, 0.0, 0.0, 0.0, 0.0, 0.0, 0.0)"
2018/12/16/17:23:07.115117,109755,1545002587,114861965,imu_link,-0.0401064407127,-0.0344583459179,0.692878252801,0.719113219601,"(0.02, 0.0, 0.0, 0.0, 0.02, 0.0, 0.0, 0.0, 0.02)",0.0,0.0,0.0,"(0.0, 0.0, 0.0, 0.0, 0.0, 0.0, 0.0, 0.0, 0.0)",0.0,0.0,0.0,"(0.0, 0.0, 0.0, 0.0, 0.0, 0.0, 0.0, 0.0, 0.0)"
2018/12/16/17:23:07.125189,109756,1545002587,124893903,imu_link,-0.0401169051592,-0.034447452694,0.69286857047,0.71912248677,"(0.02, 0.0, 0.0, 0.0, 0.02, 0.0, 0.0, 0.0, 0.02)",0.0,0.0,0.0,"(0.0, 0.0, 0.0, 0.0, 0.0, 0.0, 0.0, 0.0, 0.0)",0.0,0.0,0.0,"(0.0, 0.0, 0.0, 0.0, 0.0, 0.0, 0.0, 0.0, 0.0)"
2018/12/16/17:23:07.135201,109757,1545002587,134979009,imu_link,-0.0400448281514,-0.0344468258081,0.692882276843,0.719113327902,"(0.02, 0.0, 0.0, 0.0, 0.02, 0.0, 0.0, 0.0, 0.02)",0.0,0.0,0.0,"(0.0, 0.0, 0.0, 0.0, 0.0, 0.0, 0.0, 0.0, 0.0)",0.0,0.0,0.0,"(0.0, 0.0, 0.0, 0.0, 0.0, 0.0, 0.0, 0.0, 0.0)"
2018/12/16/17:23:07.145080,109758,1545002587,144845008,imu_link,-0.0399350757239,-0.0344330249285,0.692926160903,0.719077806679,"(0.02, 0.0, 0.0, 0.0, 0.02, 0.0, 0.0, 0.0, 0.02)",0.0,0.0,0.0,"(0.0, 0.0, 0.0, 0.0, 0.0, 0.0, 0.0, 0.0, 0.0)",0.0,0.0,0.0,"(0.0, 0.0, 0.0, 0.0, 0.0, 0.0, 0.0, 0.0, 0.0)"
2018/12/16/17:23:07.155181,109759,1545002587,154947996,imu_link,-0.0399054560578,-0.0343305019759,0.692935769059,0.719075094249,"(0.02, 0.0, 0.0, 0.0, 0.02, 0.0, 0.0, 0.0, 0.02)",0.0,0.0,0.0,"(0.0, 0.0, 0.0, 0.0, 0.0, 0.0, 0.0, 0.0, 0.0)",0.0,0.0,0.0,"(0.0, 0.0, 0.0, 0.0, 0.0, 0.0, 0.0, 0.0, 0.0)"
2018/12/16/17:23:07.165154,109760,1545002587,164921998,imu_link,-0.0399037654193,-0.034290146969,0.69293316297,0.719079624925,"(0.02, 0.0, 0.0, 0.0, 0.02, 0.0, 0.0, 0.0, 0.02)",0.0,0.0,0.0,"(0.0, 0.0, 0.0, 0.0, 0.0, 0.0, 0.0, 0.0, 0.0)",0.0,0.0,0.0,"(0.0, 0.0, 0.0, 0.0, 0.0, 0.0, 0.0, 0.0, 0.0)"
2018/12/16/17:23:07.175211,109761,1545002587,175025939,imu_link,-0.0398786674337,-0.0342864105689,0.692943283007,0.71907144323,"(0.02, 0.0, 0.0, 0.0, 0.02, 0.0, 0.0, 0.0, 0.02)",0.0,0.0,0.0,"(0.0, 0.0, 0.0, 0.0, 0.0, 0.0, 0.0, 0.0, 0.0)",0.0,0.0,0.0,"(0.0, 0.0, 0.0, 0.0, 0.0, 0.0, 0.0, 0.0, 0.0)"
2018/12/16/17:23:07.185324,109762,1545002587,185070991,imu_link,-0.0398419936397,-0.0342974471586,0.692952428869,0.719064136212,"(0.02, 0.0, 0.0, 0.0, 0.02, 0.0, 0.0, 0.0, 0.02)",0.0,0.0,0.0,"(0.0, 0.0, 0.0, 0.0, 0.0, 0.0, 0.0, 0.0, 0.0)",0.0,0.0,0.0,"(0.0, 0.0, 0.0, 0.0, 0.0, 0.0, 0.0, 0.0, 0.0)"
2018/12/16/17:23:07.195203,109763,1545002587,194963932,imu_link,-0.0398574003679,-0.0342703144273,0.69295488023,0.719062213685,"(0.02, 0.0, 0.0, 0.0, 0.02, 0.0, 0.0, 0.0, 0.02)",0.0,0.0,0.0,"(0.0, 0.0, 0.0, 0.0, 0.0, 0.0, 0.0, 0.0, 0.0)",0.0,0.0,0.0,"(0.0, 0.0, 0.0, 0.0, 0.0, 0.0, 0.0, 0.0, 0.0)"
2018/12/16/17:23:07.205199,109764,1545002587,204885005,imu_link,-0.039843425934,-0.0342253587364,0.692966226824,0.719054194558,"(0.02, 0.0, 0.0, 0.0, 0.02, 0.0, 0.0, 0.0, 0.02)",0.0,0.0,0.0,"(0.0, 0.0, 0.0, 0.0, 0.0, 0.0, 0.0, 0.0, 0.0)",0.0,0.0,0.0,"(0.0, 0.0, 0.0, 0.0, 0.0, 0.0, 0.0, 0.0, 0.0)"
2018/12/16/17:23:07.215012,109765,1545002587,214811086,imu_link,-0.0398334498879,-0.0342522757137,0.692965180683,0.719054473763,"(0.02, 0.0, 0.0, 0.0, 0.02, 0.0, 0.0, 0.0, 0.02)",0.0,0.0,0.0,"(0.0, 0.0, 0.0, 0.0, 0.0, 0.0, 0.0, 0.0, 0.0)",0.0,0.0,0.0,"(0.0, 0.0, 0.0, 0.0, 0.0, 0.0, 0.0, 0.0, 0.0)"
2018/12/16/17:23:07.225104,109766,1545002587,224905014,imu_link,-0.0398121369996,-0.0342927407713,0.692978534077,0.71904085627,"(0.02, 0.0, 0.0, 0.0, 0.02, 0.0, 0.0, 0.0, 0.02)",0.0,0.0,0.0,"(0.0, 0.0, 0.0, 0.0, 0.0, 0.0, 0.0, 0.0, 0.0)",0.0,0.0,0.0,"(0.0, 0.0, 0.0, 0.0, 0.0, 0.0, 0.0, 0.0, 0.0)"
2018/12/16/17:23:07.235154,109767,1545002587,234929084,imu_link,-0.0398252165038,-0.0342953036366,0.692986473149,0.719032358321,"(0.02, 0.0, 0.0, 0.0, 0.02, 0.0, 0.0, 0.0, 0.02)",0.0,0.0,0.0,"(0.0, 0.0, 0.0, 0.0, 0.0, 0.0, 0.0, 0.0, 0.0)",0.0,0.0,0.0,"(0.0, 0.0, 0.0, 0.0, 0.0, 0.0, 0.0, 0.0, 0.0)"
2018/12/16/17:23:07.245187,109768,1545002587,244868993,imu_link,-0.039799467523,-0.0342982873443,0.693007107897,0.719013753884,"(0.02, 0.0, 0.0, 0.0, 0.02, 0.0, 0.0, 0.0, 0.02)",0.0,0.0,0.0,"(0.0, 0.0, 0.0, 0.0, 0.0, 0.0, 0.0, 0.0, 0.0)",0.0,0.0,0.0,"(0.0, 0.0, 0.0, 0.0, 0.0, 0.0, 0.0, 0.0, 0.0)"
2018/12/16/17:23:07.255508,109769,1545002587,255276918,imu_link,-0.039802237826,-0.0342995038096,0.693018616476,0.719002450009,"(0.02, 0.0, 0.0, 0.0, 0.02, 0.0, 0.0, 0.0, 0.02)",0.0,0.0,0.0,"(0.0, 0.0, 0.0, 0.0, 0.0, 0.0, 0.0, 0.0, 0.0)",0.0,0.0,0.0,"(0.0, 0.0, 0.0, 0.0, 0.0, 0.0, 0.0, 0.0, 0.0)"
2018/12/16/17:23:07.265405,109770,1545002587,265147924,imu_link,-0.0398027482244,-0.0343554725041,0.693021598211,0.718996875623,"(0.02, 0.0, 0.0, 0.0, 0.02, 0.0, 0.0, 0.0, 0.02)",0.0,0.0,0.0,"(0.0, 0.0, 0.0, 0.0, 0.0, 0.0, 0.0, 0.0, 0.0)",0.0,0.0,0.0,"(0.0, 0.0, 0.0, 0.0, 0.0, 0.0, 0.0, 0.0, 0.0)"
2018/12/16/17:23:07.275273,109771,1545002587,274928092,imu_link,-0.0398092180802,-0.0343497624139,0.693038539102,0.718980460998,"(0.02, 0.0, 0.0, 0.0, 0.02, 0.0, 0.0, 0.0, 0.02)",0.0,0.0,0.0,"(0.0, 0.0, 0.0, 0.0, 0.0, 0.0, 0.0, 0.0, 0.0)",0.0,0.0,0.0,"(0.0, 0.0, 0.0, 0.0, 0.0, 0.0, 0.0, 0.0, 0.0)"
2018/12/16/17:23:07.285159,109772,1545002587,284907102,imu_link,-0.0398225003545,-0.0343728325954,0.693040226179,0.718976996671,"(0.02, 0.0, 0.0, 0.0, 0.02, 0.0, 0.0, 0.0, 0.02)",0.0,0.0,0.0,"(0.0, 0.0, 0.0, 0.0, 0.0, 0.0, 0.0, 0.0, 0.0)",0.0,0.0,0.0,"(0.0, 0.0, 0.0, 0.0, 0.0, 0.0, 0.0, 0.0, 0.0)"
2018/12/16/17:23:07.295065,109773,1545002587,294856071,imu_link,-0.0397954345349,-0.0343652337138,0.693050537075,0.718968919469,"(0.02, 0.0, 0.0, 0.0, 0.02, 0.0, 0.0, 0.0, 0.02)",0.0,0.0,0.0,"(0.0, 0.0, 0.0, 0.0, 0.0, 0.0, 0.0, 0.0, 0.0)",0.0,0.0,0.0,"(0.0, 0.0, 0.0, 0.0, 0.0, 0.0, 0.0, 0.0, 0.0)"
2018/12/16/17:23:07.305382,109774,1545002587,305130958,imu_link,-0.0397583500386,-0.0343609982692,0.693062119564,0.718960008502,"(0.02, 0.0, 0.0, 0.0, 0.02, 0.0, 0.0, 0.0, 0.02)",0.0,0.0,0.0,"(0.0, 0.0, 0.0, 0.0, 0.0, 0.0, 0.0, 0.0, 0.0)",0.0,0.0,0.0,"(0.0, 0.0, 0.0, 0.0, 0.0, 0.0, 0.0, 0.0, 0.0)"
2018/12/16/17:23:07.315707,109775,1545002587,314924001,imu_link,-0.0396981299776,-0.0343504954312,0.693076458724,0.718950015163,"(0.02, 0.0, 0.0, 0.0, 0.02, 0.0, 0.0, 0.0, 0.02)",0.0,0.0,0.0,"(0.0, 0.0, 0.0, 0.0, 0.0, 0.0, 0.0, 0.0, 0.0)",0.0,0.0,0.0,"(0.0, 0.0, 0.0, 0.0, 0.0, 0.0, 0.0, 0.0, 0.0)"
2018/12/16/17:23:07.325128,109776,1545002587,324908971,imu_link,-0.039674212934,-0.0342229890803,0.693093145448,0.71894132972,"(0.02, 0.0, 0.0, 0.0, 0.02, 0.0, 0.0, 0.0, 0.02)",0.0,0.0,0.0,"(0.0, 0.0, 0.0, 0.0, 0.0, 0.0, 0.0, 0.0, 0.0)",0.0,0.0,0.0,"(0.0, 0.0, 0.0, 0.0, 0.0, 0.0, 0.0, 0.0, 0.0)"
2018/12/16/17:23:07.335354,109777,1545002587,335103988,imu_link,-0.0396117752822,-0.034081982341,0.693095254949,0.718949437239,"(0.02, 0.0, 0.0, 0.0, 0.02, 0.0, 0.0, 0.0, 0.02)",0.0,0.0,0.0,"(0.0, 0.0, 0.0, 0.0, 0.0, 0.0, 0.0, 0.0, 0.0)",0.0,0.0,0.0,"(0.0, 0.0, 0.0, 0.0, 0.0, 0.0, 0.0, 0.0, 0.0)"
2018/12/16/17:23:07.345125,109778,1545002587,344908952,imu_link,-0.0394941815983,-0.0340848124319,0.69310316629,0.718948145599,"(0.02, 0.0, 0.0, 0.0, 0.02, 0.0, 0.0, 0.0, 0.02)",0.0,0.0,0.0,"(0.0, 0.0, 0.0, 0.0, 0.0, 0.0, 0.0, 0.0, 0.0)",0.0,0.0,0.0,"(0.0, 0.0, 0.0, 0.0, 0.0, 0.0, 0.0, 0.0, 0.0)"
2018/12/16/17:23:07.355172,109779,1545002587,354876041,imu_link,-0.0394442538128,-0.0341091147074,0.693111994117,0.718941223429,"(0.02, 0.0, 0.0, 0.0, 0.02, 0.0, 0.0, 0.0, 0.02)",0.0,0.0,0.0,"(0.0, 0.0, 0.0, 0.0, 0.0, 0.0, 0.0, 0.0, 0.0)",0.0,0.0,0.0,"(0.0, 0.0, 0.0, 0.0, 0.0, 0.0, 0.0, 0.0, 0.0)"
2018/12/16/17:23:07.365230,109780,1545002587,364943027,imu_link,-0.0394272589881,-0.034116291148,0.693130068698,0.718924389483,"(0.02, 0.0, 0.0, 0.0, 0.02, 0.0, 0.0, 0.0, 0.02)",0.0,0.0,0.0,"(0.0, 0.0, 0.0, 0.0, 0.0, 0.0, 0.0, 0.0, 0.0)",0.0,0.0,0.0,"(0.0, 0.0, 0.0, 0.0, 0.0, 0.0, 0.0, 0.0, 0.0)"
2018/12/16/17:23:07.375227,109781,1545002587,374917984,imu_link,-0.0394523531808,-0.0340904487562,0.693142528329,0.718912225903,"(0.02, 0.0, 0.0, 0.0, 0.02, 0.0, 0.0, 0.0, 0.02)",0.0,0.0,0.0,"(0.0, 0.0, 0.0, 0.0, 0.0, 0.0, 0.0, 0.0, 0.0)",0.0,0.0,0.0,"(0.0, 0.0, 0.0, 0.0, 0.0, 0.0, 0.0, 0.0, 0.0)"
2018/12/16/17:23:07.385297,109782,1545002587,385025024,imu_link,-0.0394530737231,-0.0340601855346,0.693165712476,0.718891267009,"(0.02, 0.0, 0.0, 0.0, 0.02, 0.0, 0.0, 0.0, 0.02)",0.0,0.0,0.0,"(0.0, 0.0, 0.0, 0.0, 0.0, 0.0, 0.0, 0.0, 0.0)",0.0,0.0,0.0,"(0.0, 0.0, 0.0, 0.0, 0.0, 0.0, 0.0, 0.0, 0.0)"
2018/12/16/17:23:07.395170,109783,1545002587,394934892,imu_link,-0.0394833358426,-0.0340350572414,0.693188645067,0.718868683015,"(0.02, 0.0, 0.0, 0.0, 0.02, 0.0, 0.0, 0.0, 0.02)",0.0,0.0,0.0,"(0.0, 0.0, 0.0, 0.0, 0.0, 0.0, 0.0, 0.0, 0.0)",0.0,0.0,0.0,"(0.0, 0.0, 0.0, 0.0, 0.0, 0.0, 0.0, 0.0, 0.0)"
2018/12/16/17:23:07.405145,109784,1545002587,404937028,imu_link,-0.0394145940438,-0.0340809448413,0.693231392818,0.718829058251,"(0.02, 0.0, 0.0, 0.0, 0.02, 0.0, 0.0, 0.0, 0.02)",0.0,0.0,0.0,"(0.0, 0.0, 0.0, 0.0, 0.0, 0.0, 0.0, 0.0, 0.0)",0.0,0.0,0.0,"(0.0, 0.0, 0.0, 0.0, 0.0, 0.0, 0.0, 0.0, 0.0)"
2018/12/16/17:23:07.415148,109785,1545002587,414866924,imu_link,-0.0394220853375,-0.0340358748959,0.693250888343,0.718811981133,"(0.02, 0.0, 0.0, 0.0, 0.02, 0.0, 0.0, 0.0, 0.02)",0.0,0.0,0.0,"(0.0, 0.0, 0.0, 0.0, 0.0, 0.0, 0.0, 0.0, 0.0)",0.0,0.0,0.0,"(0.0, 0.0, 0.0, 0.0, 0.0, 0.0, 0.0, 0.0, 0.0)"
2018/12/16/17:23:07.425174,109786,1545002587,424969911,imu_link,-0.0394319659757,-0.0340128899246,0.69327121458,0.71879292318,"(0.02, 0.0, 0.0, 0.0, 0.02, 0.0, 0.0, 0.0, 0.02)",0.0,0.0,0.0,"(0.0, 0.0, 0.0, 0.0, 0.0, 0.0, 0.0, 0.0, 0.0)",0.0,0.0,0.0,"(0.0, 0.0, 0.0, 0.0, 0.0, 0.0, 0.0, 0.0, 0.0)"
2018/12/16/17:23:07.435196,109787,1545002587,434966087,imu_link,-0.0394494317309,-0.0340169139727,0.693285654102,0.718777847263,"(0.02, 0.0, 0.0, 0.0, 0.02, 0.0, 0.0, 0.0, 0.02)",0.0,0.0,0.0,"(0.0, 0.0, 0.0, 0.0, 0.0, 0.0, 0.0, 0.0, 0.0)",0.0,0.0,0.0,"(0.0, 0.0, 0.0, 0.0, 0.0, 0.0, 0.0, 0.0, 0.0)"
2018/12/16/17:23:07.445279,109788,1545002587,444926977,imu_link,-0.0394371743673,-0.0340356526786,0.693301333703,0.718762508976,"(0.02, 0.0, 0.0, 0.0, 0.02, 0.0, 0.0, 0.0, 0.02)",0.0,0.0,0.0,"(0.0, 0.0, 0.0, 0.0, 0.0, 0.0, 0.0, 0.0, 0.0)",0.0,0.0,0.0,"(0.0, 0.0, 0.0, 0.0, 0.0, 0.0, 0.0, 0.0, 0.0)"
2018/12/16/17:23:07.455178,109789,1545002587,454968929,imu_link,-0.039465225337,-0.0340033676529,0.693322309607,0.718742263943,"(0.02, 0.0, 0.0, 0.0, 0.02, 0.0, 0.0, 0.0, 0.02)",0.0,0.0,0.0,"(0.0, 0.0, 0.0, 0.0, 0.0, 0.0, 0.0, 0.0, 0.0)",0.0,0.0,0.0,"(0.0, 0.0, 0.0, 0.0, 0.0, 0.0, 0.0, 0.0, 0.0)"
2018/12/16/17:23:07.465338,109790,1545002587,465085029,imu_link,-0.0394529500587,-0.033991383734,0.693333021506,0.718733171527,"(0.02, 0.0, 0.0, 0.0, 0.02, 0.0, 0.0, 0.0, 0.02)",0.0,0.0,0.0,"(0.0, 0.0, 0.0, 0.0, 0.0, 0.0, 0.0, 0.0, 0.0)",0.0,0.0,0.0,"(0.0, 0.0, 0.0, 0.0, 0.0, 0.0, 0.0, 0.0, 0.0)"
2018/12/16/17:23:07.475452,109791,1545002587,475218057,imu_link,-0.0394541613462,-0.0339565431844,0.693338619222,0.718729351998,"(0.02, 0.0, 0.0, 0.0, 0.02, 0.0, 0.0, 0.0, 0.02)",0.0,0.0,0.0,"(0.0, 0.0, 0.0, 0.0, 0.0, 0.0, 0.0, 0.0, 0.0)",0.0,0.0,0.0,"(0.0, 0.0, 0.0, 0.0, 0.0, 0.0, 0.0, 0.0, 0.0)"
2018/12/16/17:23:07.485147,109792,1545002587,484910964,imu_link,-0.0394203482644,-0.0339306313109,0.693342286103,0.718728893744,"(0.02, 0.0, 0.0, 0.0, 0.02, 0.0, 0.0, 0.0, 0.02)",0.0,0.0,0.0,"(0.0, 0.0, 0.0, 0.0, 0.0, 0.0, 0.0, 0.0, 0.0)",0.0,0.0,0.0,"(0.0, 0.0, 0.0, 0.0, 0.0, 0.0, 0.0, 0.0, 0.0)"
2018/12/16/17:23:07.495179,109793,1545002587,494962930,imu_link,-0.0393488949326,-0.0339086107634,0.693357272633,0.71871939105,"(0.02, 0.0, 0.0, 0.0, 0.02, 0.0, 0.0, 0.0, 0.02)",0.0,0.0,0.0,"(0.0, 0.0, 0.0, 0.0, 0.0, 0.0, 0.0, 0.0, 0.0)",0.0,0.0,0.0,"(0.0, 0.0, 0.0, 0.0, 0.0, 0.0, 0.0, 0.0, 0.0)"
2018/12/16/17:23:07.505237,109794,1545002587,504972934,imu_link,-0.0393314821089,-0.0338195007346,0.693381976047,0.718700710434,"(0.02, 0.0, 0.0, 0.0, 0.02, 0.0, 0.0, 0.0, 0.02)",0.0,0.0,0.0,"(0.0, 0.0, 0.0, 0.0, 0.0, 0.0, 0.0, 0.0, 0.0)",0.0,0.0,0.0,"(0.0, 0.0, 0.0, 0.0, 0.0, 0.0, 0.0, 0.0, 0.0)"
2018/12/16/17:23:07.515356,109795,1545002587,515002012,imu_link,-0.0393401117005,-0.0337550711143,0.693388578201,0.718696897451,"(0.02, 0.0, 0.0, 0.0, 0.02, 0.0, 0.0, 0.0, 0.02)",0.0,0.0,0.0,"(0.0, 0.0, 0.0, 0.0, 0.0, 0.0, 0.0, 0.0, 0.0)",0.0,0.0,0.0,"(0.0, 0.0, 0.0, 0.0, 0.0, 0.0, 0.0, 0.0, 0.0)"
2018/12/16/17:23:07.525230,109796,1545002587,524949073,imu_link,-0.0392960762569,-0.0337737630945,0.693410642359,0.718677140572,"(0.02, 0.0, 0.0, 0.0, 0.02, 0.0, 0.0, 0.0, 0.02)",0.0,0.0,0.0,"(0.0, 0.0, 0.0, 0.0, 0.0, 0.0, 0.0, 0.0, 0.0)",0.0,0.0,0.0,"(0.0, 0.0, 0.0, 0.0, 0.0, 0.0, 0.0, 0.0, 0.0)"
2018/12/16/17:23:07.535149,109797,1545002587,534949064,imu_link,-0.0392657070021,-0.0337800051283,0.693420409421,0.71866908331,"(0.02, 0.0, 0.0, 0.0, 0.02, 0.0, 0.0, 0.0, 0.02)",0.0,0.0,0.0,"(0.0, 0.0, 0.0, 0.0, 0.0, 0.0, 0.0, 0.0, 0.0)",0.0,0.0,0.0,"(0.0, 0.0, 0.0, 0.0, 0.0, 0.0, 0.0, 0.0, 0.0)"
2018/12/16/17:23:07.545236,109798,1545002587,544903039,imu_link,-0.0392783523749,-0.0337859033734,0.693427942842,0.718660846195,"(0.02, 0.0, 0.0, 0.0, 0.02, 0.0, 0.0, 0.0, 0.02)",0.0,0.0,0.0,"(0.0, 0.0, 0.0, 0.0, 0.0, 0.0, 0.0, 0.0, 0.0)",0.0,0.0,0.0,"(0.0, 0.0, 0.0, 0.0, 0.0, 0.0, 0.0, 0.0, 0.0)"
2018/12/16/17:23:07.555191,109799,1545002587,554925918,imu_link,-0.0392676341572,-0.0338158204387,0.693435355584,0.71865287227,"(0.02, 0.0, 0.0, 0.0, 0.02, 0.0, 0.0, 0.0, 0.02)",0.0,0.0,0.0,"(0.0, 0.0, 0.0, 0.0, 0.0, 0.0, 0.0, 0.0, 0.0)",0.0,0.0,0.0,"(0.0, 0.0, 0.0, 0.0, 0.0, 0.0, 0.0, 0.0, 0.0)"
2018/12/16/17:23:07.565209,109800,1545002587,564929008,imu_link,-0.0392682497767,-0.0338618913457,0.693456274184,0.718630484094,"(0.02, 0.0, 0.0, 0.0, 0.02, 0.0, 0.0, 0.0, 0.02)",0.0,0.0,0.0,"(0.0, 0.0, 0.0, 0.0, 0.0, 0.0, 0.0, 0.0, 0.0)",0.0,0.0,0.0,"(0.0, 0.0, 0.0, 0.0, 0.0, 0.0, 0.0, 0.0, 0.0)"
2018/12/16/17:23:07.575316,109801,1545002587,575056076,imu_link,-0.0392713978973,-0.0339260112837,0.693462920302,0.718620874475,"(0.02, 0.0, 0.0, 0.0, 0.02, 0.0, 0.0, 0.0, 0.02)",0.0,0.0,0.0,"(0.0, 0.0, 0.0, 0.0, 0.0, 0.0, 0.0, 0.0, 0.0)",0.0,0.0,0.0,"(0.0, 0.0, 0.0, 0.0, 0.0, 0.0, 0.0, 0.0, 0.0)"
2018/12/16/17:23:07.585193,109802,1545002587,584948062,imu_link,-0.0392760809053,-0.0339752959987,0.693467027065,0.718614327093,"(0.02, 0.0, 0.0, 0.0, 0.02, 0.0, 0.0, 0.0, 0.02)",0.0,0.0,0.0,"(0.0, 0.0, 0.0, 0.0, 0.0, 0.0, 0.0, 0.0, 0.0)",0.0,0.0,0.0,"(0.0, 0.0, 0.0, 0.0, 0.0, 0.0, 0.0, 0.0, 0.0)"
2018/12/16/17:23:07.595329,109803,1545002587,595136880,imu_link,-0.039285413945,-0.033989879187,0.693458540124,0.718621317171,"(0.02, 0.0, 0.0, 0.0, 0.02, 0.0, 0.0, 0.0, 0.02)",0.0,0.0,0.0,"(0.0, 0.0, 0.0, 0.0, 0.0, 0.0, 0.0, 0.0, 0.0)",0.0,0.0,0.0,"(0.0, 0.0, 0.0, 0.0, 0.0, 0.0, 0.0, 0.0, 0.0)"
2018/12/16/17:23:07.605139,109804,1545002587,604907989,imu_link,-0.0392687275827,-0.0340055215571,0.693475807879,0.718604825634,"(0.02, 0.0, 0.0, 0.0, 0.02, 0.0, 0.0, 0.0, 0.02)",0.0,0.0,0.0,"(0.0, 0.0, 0.0, 0.0, 0.0, 0.0, 0.0, 0.0, 0.0)",0.0,0.0,0.0,"(0.0, 0.0, 0.0, 0.0, 0.0, 0.0, 0.0, 0.0, 0.0)"
2018/12/16/17:23:07.615071,109805,1545002587,614870071,imu_link,-0.0392324610348,-0.0340799811681,0.693480056907,0.71859917865,"(0.02, 0.0, 0.0, 0.0, 0.02, 0.0, 0.0, 0.0, 0.02)",0.0,0.0,0.0,"(0.0, 0.0, 0.0, 0.0, 0.0, 0.0, 0.0, 0.0, 0.0)",0.0,0.0,0.0,"(0.0, 0.0, 0.0, 0.0, 0.0, 0.0, 0.0, 0.0, 0.0)"
2018/12/16/17:23:07.625144,109806,1545002587,624922037,imu_link,-0.0392227781706,-0.03410251041,0.693481776542,0.718596978884,"(0.02, 0.0, 0.0, 0.0, 0.02, 0.0, 0.0, 0.0, 0.02)",0.0,0.0,0.0,"(0.0, 0.0, 0.0, 0.0, 0.0, 0.0, 0.0, 0.0, 0.0)",0.0,0.0,0.0,"(0.0, 0.0, 0.0, 0.0, 0.0, 0.0, 0.0, 0.0, 0.0)"
2018/12/16/17:23:07.635246,109807,1545002587,634990930,imu_link,-0.0392296256207,-0.0340781043677,0.693492717739,0.718587203977,"(0.02, 0.0, 0.0, 0.0, 0.02, 0.0, 0.0, 0.0, 0.02)",0.0,0.0,0.0,"(0.0, 0.0, 0.0, 0.0, 0.0, 0.0, 0.0, 0.0, 0.0)",0.0,0.0,0.0,"(0.0, 0.0, 0.0, 0.0, 0.0, 0.0, 0.0, 0.0, 0.0)"
2018/12/16/17:23:07.645189,109808,1545002587,644902944,imu_link,-0.0392193981113,-0.0340885717932,0.693475794729,0.71860359741,"(0.02, 0.0, 0.0, 0.0, 0.02, 0.0, 0.0, 0.0, 0.02)",0.0,0.0,0.0,"(0.0, 0.0, 0.0, 0.0, 0.0, 0.0, 0.0, 0.0, 0.0)",0.0,0.0,0.0,"(0.0, 0.0, 0.0, 0.0, 0.0, 0.0, 0.0, 0.0, 0.0)"
2018/12/16/17:23:07.655404,109809,1545002587,655185937,imu_link,-0.0391082185118,-0.0341275167592,0.693514448831,0.718570503922,"(0.02, 0.0, 0.0, 0.0, 0.02, 0.0, 0.0, 0.0, 0.02)",0.0,0.0,0.0,"(0.0, 0.0, 0.0, 0.0, 0.0, 0.0, 0.0, 0.0, 0.0)",0.0,0.0,0.0,"(0.0, 0.0, 0.0, 0.0, 0.0, 0.0, 0.0, 0.0, 0.0)"
2018/12/16/17:23:07.665357,109810,1545002587,665098905,imu_link,-0.0391509330588,-0.0340912676116,0.693509427444,0.718574744866,"(0.02, 0.0, 0.0, 0.0, 0.02, 0.0, 0.0, 0.0, 0.02)",0.0,0.0,0.0,"(0.0, 0.0, 0.0, 0.0, 0.0, 0.0, 0.0, 0.0, 0.0)",0.0,0.0,0.0,"(0.0, 0.0, 0.0, 0.0, 0.0, 0.0, 0.0, 0.0, 0.0)"
2018/12/16/17:23:07.675243,109811,1545002587,675043106,imu_link,-0.0391416078215,-0.0340980782628,0.693516718356,0.718567893074,"(0.02, 0.0, 0.0, 0.0, 0.02, 0.0, 0.0, 0.0, 0.02)",0.0,0.0,0.0,"(0.0, 0.0, 0.0, 0.0, 0.0, 0.0, 0.0, 0.0, 0.0)",0.0,0.0,0.0,"(0.0, 0.0, 0.0, 0.0, 0.0, 0.0, 0.0, 0.0, 0.0)"
2018/12/16/17:23:07.685324,109812,1545002587,685064077,imu_link,-0.039142518931,-0.0341498728077,0.693515220222,0.718566829682,"(0.02, 0.0, 0.0, 0.0, 0.02, 0.0, 0.0, 0.0, 0.02)",0.0,0.0,0.0,"(0.0, 0.0, 0.0, 0.0, 0.0, 0.0, 0.0, 0.0, 0.0)",0.0,0.0,0.0,"(0.0, 0.0, 0.0, 0.0, 0.0, 0.0, 0.0, 0.0, 0.0)"
2018/12/16/17:23:07.695047,109813,1545002587,694858074,imu_link,-0.0391167165884,-0.0341758500145,0.693519883987,0.718562498516,"(0.02, 0.0, 0.0, 0.0, 0.02, 0.0, 0.0, 0.0, 0.02)",0.0,0.0,0.0,"(0.0, 0.0, 0.0, 0.0, 0.0, 0.0, 0.0, 0.0, 0.0)",0.0,0.0,0.0,"(0.0, 0.0, 0.0, 0.0, 0.0, 0.0, 0.0, 0.0, 0.0)"
2018/12/16/17:23:07.705114,109814,1545002587,704915046,imu_link,-0.0391187825916,-0.0341472397499,0.693529355109,0.718554605071,"(0.02, 0.0, 0.0, 0.0, 0.02, 0.0, 0.0, 0.0, 0.02)",0.0,0.0,0.0,"(0.0, 0.0, 0.0, 0.0, 0.0, 0.0, 0.0, 0.0, 0.0)",0.0,0.0,0.0,"(0.0, 0.0, 0.0, 0.0, 0.0, 0.0, 0.0, 0.0, 0.0)"
2018/12/16/17:23:07.715168,109815,1545002587,714879989,imu_link,-0.0391093791416,-0.0341304451154,0.693535411202,0.718550069646,"(0.02, 0.0, 0.0, 0.0, 0.02, 0.0, 0.0, 0.0, 0.02)",0.0,0.0,0.0,"(0.0, 0.0, 0.0, 0.0, 0.0, 0.0, 0.0, 0.0, 0.0)",0.0,0.0,0.0,"(0.0, 0.0, 0.0, 0.0, 0.0, 0.0, 0.0, 0.0, 0.0)"
2018/12/16/17:23:07.725194,109816,1545002587,724939107,imu_link,-0.0390775072862,-0.0341252279514,0.693535041881,0.718552407918,"(0.02, 0.0, 0.0, 0.0, 0.02, 0.0, 0.0, 0.0, 0.02)",0.0,0.0,0.0,"(0.0, 0.0, 0.0, 0.0, 0.0, 0.0, 0.0, 0.0, 0.0)",0.0,0.0,0.0,"(0.0, 0.0, 0.0, 0.0, 0.0, 0.0, 0.0, 0.0, 0.0)"
2018/12/16/17:23:07.735187,109817,1545002587,734906911,imu_link,-0.039105159407,-0.0341410882952,0.693527162876,0.718557754777,"(0.02, 0.0, 0.0, 0.0, 0.02, 0.0, 0.0, 0.0, 0.02)",0.0,0.0,0.0,"(0.0, 0.0, 0.0, 0.0, 0.0, 0.0, 0.0, 0.0, 0.0)",0.0,0.0,0.0,"(0.0, 0.0, 0.0, 0.0, 0.0, 0.0, 0.0, 0.0, 0.0)"
2018/12/16/17:23:07.747121,109818,1545002587,746927976,imu_link,-0.0391046773751,-0.0341205451438,0.693524002453,0.718561807104,"(0.02, 0.0, 0.0, 0.0, 0.02, 0.0, 0.0, 0.0, 0.02)",0.0,0.0,0.0,"(0.0, 0.0, 0.0, 0.0, 0.0, 0.0, 0.0, 0.0, 0.0)",0.0,0.0,0.0,"(0.0, 0.0, 0.0, 0.0, 0.0, 0.0, 0.0, 0.0, 0.0)"
2018/12/16/17:23:07.755437,109819,1545002587,755253076,imu_link,-0.0391176520255,-0.0340747588195,0.693529329291,0.718558132321,"(0.02, 0.0, 0.0, 0.0, 0.02, 0.0, 0.0, 0.0, 0.02)",0.0,0.0,0.0,"(0.0, 0.0, 0.0, 0.0, 0.0, 0.0, 0.0, 0.0, 0.0)",0.0,0.0,0.0,"(0.0, 0.0, 0.0, 0.0, 0.0, 0.0, 0.0, 0.0, 0.0)"
2018/12/16/17:23:07.765512,109820,1545002587,764945983,imu_link,-0.0391347609082,-0.0340726588147,0.693504873589,0.718580903391,"(0.02, 0.0, 0.0, 0.0, 0.02, 0.0, 0.0, 0.0, 0.02)",0.0,0.0,0.0,"(0.0, 0.0, 0.0, 0.0, 0.0, 0.0, 0.0, 0.0, 0.0)",0.0,0.0,0.0,"(0.0, 0.0, 0.0, 0.0, 0.0, 0.0, 0.0, 0.0, 0.0)"
2018/12/16/17:23:07.775277,109821,1545002587,775036096,imu_link,-0.0391062811611,-0.0340413842924,0.693520609034,0.718568749511,"(0.02, 0.0, 0.0, 0.0, 0.02, 0.0, 0.0, 0.0, 0.02)",0.0,0.0,0.0,"(0.0, 0.0, 0.0, 0.0, 0.0, 0.0, 0.0, 0.0, 0.0)",0.0,0.0,0.0,"(0.0, 0.0, 0.0, 0.0, 0.0, 0.0, 0.0, 0.0, 0.0)"
2018/12/16/17:23:07.785182,109822,1545002587,784960985,imu_link,-0.039152835355,-0.0339790866349,0.693520604783,0.718569167093,"(0.02, 0.0, 0.0, 0.0, 0.02, 0.0, 0.0, 0.0, 0.02)",0.0,0.0,0.0,"(0.0, 0.0, 0.0, 0.0, 0.0, 0.0, 0.0, 0.0, 0.0)",0.0,0.0,0.0,"(0.0, 0.0, 0.0, 0.0, 0.0, 0.0, 0.0, 0.0, 0.0)"
2018/12/16/17:23:07.795177,109823,1545002587,794997930,imu_link,-0.0392209072977,-0.0339292856256,0.693524014306,0.718564517345,"(0.02, 0.0, 0.0, 0.0, 0.02, 0.0, 0.0, 0.0, 0.02)",0.0,0.0,0.0,"(0.0, 0.0, 0.0, 0.0, 0.0, 0.0, 0.0, 0.0, 0.0)",0.0,0.0,0.0,"(0.0, 0.0, 0.0, 0.0, 0.0, 0.0, 0.0, 0.0, 0.0)"
2018/12/16/17:23:07.805293,109824,1545002587,805002927,imu_link,-0.0392598798177,-0.0339177150055,0.693522378861,0.718564513781,"(0.02, 0.0, 0.0, 0.0, 0.02, 0.0, 0.0, 0.0, 0.02)",0.0,0.0,0.0,"(0.0, 0.0, 0.0, 0.0, 0.0, 0.0, 0.0, 0.0, 0.0)",0.0,0.0,0.0,"(0.0, 0.0, 0.0, 0.0, 0.0, 0.0, 0.0, 0.0, 0.0)"
2018/12/16/17:23:07.815148,109825,1545002587,814960956,imu_link,-0.0392511950306,-0.0339293451283,0.693520512674,0.718566240321,"(0.02, 0.0, 0.0, 0.0, 0.02, 0.0, 0.0, 0.0, 0.02)",0.0,0.0,0.0,"(0.0, 0.0, 0.0, 0.0, 0.0, 0.0, 0.0, 0.0, 0.0)",0.0,0.0,0.0,"(0.0, 0.0, 0.0, 0.0, 0.0, 0.0, 0.0, 0.0, 0.0)"
2018/12/16/17:23:07.825258,109826,1545002587,824982881,imu_link,-0.0392512572843,-0.0338707434469,0.693524054994,0.718565582731,"(0.02, 0.0, 0.0, 0.0, 0.02, 0.0, 0.0, 0.0, 0.02)",0.0,0.0,0.0,"(0.0, 0.0, 0.0, 0.0, 0.0, 0.0, 0.0, 0.0, 0.0)",0.0,0.0,0.0,"(0.0, 0.0, 0.0, 0.0, 0.0, 0.0, 0.0, 0.0, 0.0)"
2018/12/16/17:23:07.835423,109827,1545002587,835247993,imu_link,-0.0392705329991,-0.033777630293,0.693525442401,0.71856757349,"(0.02, 0.0, 0.0, 0.0, 0.02, 0.0, 0.0, 0.0, 0.02)",0.0,0.0,0.0,"(0.0, 0.0, 0.0, 0.0, 0.0, 0.0, 0.0, 0.0, 0.0)",0.0,0.0,0.0,"(0.0, 0.0, 0.0, 0.0, 0.0, 0.0, 0.0, 0.0, 0.0)"
2018/12/16/17:23:07.845280,109828,1545002587,845081090,imu_link,-0.0392831541514,-0.0337742897247,0.693528532933,0.718564057799,"(0.02, 0.0, 0.0, 0.0, 0.02, 0.0, 0.0, 0.0, 0.02)",0.0,0.0,0.0,"(0.0, 0.0, 0.0, 0.0, 0.0, 0.0, 0.0, 0.0, 0.0)",0.0,0.0,0.0,"(0.0, 0.0, 0.0, 0.0, 0.0, 0.0, 0.0, 0.0, 0.0)"
2018/12/16/17:23:07.855443,109829,1545002587,855264902,imu_link,-0.0392887832729,-0.0338059454576,0.693545695515,0.718545696385,"(0.02, 0.0, 0.0, 0.0, 0.02, 0.0, 0.0, 0.0, 0.02)",0.0,0.0,0.0,"(0.0, 0.0, 0.0, 0.0, 0.0, 0.0, 0.0, 0.0, 0.0)",0.0,0.0,0.0,"(0.0, 0.0, 0.0, 0.0, 0.0, 0.0, 0.0, 0.0, 0.0)"
2018/12/16/17:23:07.865324,109830,1545002587,864988088,imu_link,-0.0391960141996,-0.0338717443449,0.693555947386,0.718537768841,"(0.02, 0.0, 0.0, 0.0, 0.02, 0.0, 0.0, 0.0, 0.02)",0.0,0.0,0.0,"(0.0, 0.0, 0.0, 0.0, 0.0, 0.0, 0.0, 0.0, 0.0)",0.0,0.0,0.0,"(0.0, 0.0, 0.0, 0.0, 0.0, 0.0, 0.0, 0.0, 0.0)"
2018/12/16/17:23:07.875251,109831,1545002587,874982118,imu_link,-0.0392482628852,-0.0337365324825,0.69356179019,0.718535638243,"(0.02, 0.0, 0.0, 0.0, 0.02, 0.0, 0.0, 0.0, 0.02)",0.0,0.0,0.0,"(0.0, 0.0, 0.0, 0.0, 0.0, 0.0, 0.0, 0.0, 0.0)",0.0,0.0,0.0,"(0.0, 0.0, 0.0, 0.0, 0.0, 0.0, 0.0, 0.0, 0.0)"
2018/12/16/17:23:07.885273,109832,1545002587,884983062,imu_link,-0.0393127550779,-0.0335964185802,0.693557102321,0.718543202436,"(0.02, 0.0, 0.0, 0.0, 0.02, 0.0, 0.0, 0.0, 0.02)",0.0,0.0,0.0,"(0.0, 0.0, 0.0, 0.0, 0.0, 0.0, 0.0, 0.0, 0.0)",0.0,0.0,0.0,"(0.0, 0.0, 0.0, 0.0, 0.0, 0.0, 0.0, 0.0, 0.0)"
2018/12/16/17:23:07.895239,109833,1545002587,895030975,imu_link,-0.0392856590973,-0.0336065148689,0.693569080389,0.718532650529,"(0.02, 0.0, 0.0, 0.0, 0.02, 0.0, 0.0, 0.0, 0.02)",0.0,0.0,0.0,"(0.0, 0.0, 0.0, 0.0, 0.0, 0.0, 0.0, 0.0, 0.0)",0.0,0.0,0.0,"(0.0, 0.0, 0.0, 0.0, 0.0, 0.0, 0.0, 0.0, 0.0)"
2018/12/16/17:23:07.905243,109834,1545002587,905016899,imu_link,-0.0392466006742,-0.0336473110747,0.693579085067,0.718523218519,"(0.02, 0.0, 0.0, 0.0, 0.02, 0.0, 0.0, 0.0, 0.02)",0.0,0.0,0.0,"(0.0, 0.0, 0.0, 0.0, 0.0, 0.0, 0.0, 0.0, 0.0)",0.0,0.0,0.0,"(0.0, 0.0, 0.0, 0.0, 0.0, 0.0, 0.0, 0.0, 0.0)"
2018/12/16/17:23:07.915378,109835,1545002587,914920091,imu_link,-0.039273545931,-0.033697830126,0.69359831001,0.718500820588,"(0.02, 0.0, 0.0, 0.0, 0.02, 0.0, 0.0, 0.0, 0.02)",0.0,0.0,0.0,"(0.0, 0.0, 0.0, 0.0, 0.0, 0.0, 0.0, 0.0, 0.0)",0.0,0.0,0.0,"(0.0, 0.0, 0.0, 0.0, 0.0, 0.0, 0.0, 0.0, 0.0)"
2018/12/16/17:23:07.925433,109836,1545002587,925148010,imu_link,-0.0393377561554,-0.033616483682,0.69359378394,0.718505487694,"(0.02, 0.0, 0.0, 0.0, 0.02, 0.0, 0.0, 0.0, 0.02)",0.0,0.0,0.0,"(0.0, 0.0, 0.0, 0.0, 0.0, 0.0, 0.0, 0.0, 0.0)",0.0,0.0,0.0,"(0.0, 0.0, 0.0, 0.0, 0.0, 0.0, 0.0, 0.0, 0.0)"
2018/12/16/17:23:07.935294,109837,1545002587,935003995,imu_link,-0.039312444336,-0.0336068357025,0.693609118738,0.71849252099,"(0.02, 0.0, 0.0, 0.0, 0.02, 0.0, 0.0, 0.0, 0.02)",0.0,0.0,0.0,"(0.0, 0.0, 0.0, 0.0, 0.0, 0.0, 0.0, 0.0, 0.0)",0.0,0.0,0.0,"(0.0, 0.0, 0.0, 0.0, 0.0, 0.0, 0.0, 0.0, 0.0)"
2018/12/16/17:23:07.945230,109838,1545002587,945050954,imu_link,-0.0393283684313,-0.0336198125896,0.693607434927,0.718492667918,"(0.02, 0.0, 0.0, 0.0, 0.02, 0.0, 0.0, 0.0, 0.02)",0.0,0.0,0.0,"(0.0, 0.0, 0.0, 0.0, 0.0, 0.0, 0.0, 0.0, 0.0)",0.0,0.0,0.0,"(0.0, 0.0, 0.0, 0.0, 0.0, 0.0, 0.0, 0.0, 0.0)"
2018/12/16/17:23:07.955298,109839,1545002587,955043077,imu_link,-0.039324739954,-0.0335896504846,0.693587123399,0.718513884669,"(0.02, 0.0, 0.0, 0.0, 0.02, 0.0, 0.0, 0.0, 0.02)",0.0,0.0,0.0,"(0.0, 0.0, 0.0, 0.0, 0.0, 0.0, 0.0, 0.0, 0.0)",0.0,0.0,0.0,"(0.0, 0.0, 0.0, 0.0, 0.0, 0.0, 0.0, 0.0, 0.0)"
2018/12/16/17:23:07.965297,109840,1545002587,965084075,imu_link,-0.0393392123824,-0.0335346677567,0.693590223728,0.71851266793,"(0.02, 0.0, 0.0, 0.0, 0.02, 0.0, 0.0, 0.0, 0.02)",0.0,0.0,0.0,"(0.0, 0.0, 0.0, 0.0, 0.0, 0.0, 0.0, 0.0, 0.0)",0.0,0.0,0.0,"(0.0, 0.0, 0.0, 0.0, 0.0, 0.0, 0.0, 0.0, 0.0)"
2018/12/16/17:23:07.975170,109841,1545002587,974940061,imu_link,-0.0393275516098,-0.0335277387241,0.693574393793,0.718528910132,"(0.02, 0.0, 0.0, 0.0, 0.02, 0.0, 0.0, 0.0, 0.02)",0.0,0.0,0.0,"(0.0, 0.0, 0.0, 0.0, 0.0, 0.0, 0.0, 0.0, 0.0)",0.0,0.0,0.0,"(0.0, 0.0, 0.0, 0.0, 0.0, 0.0, 0.0, 0.0, 0.0)"
2018/12/16/17:23:07.995539,109842,1545002587,995335102,imu_link,-0.0392929543493,-0.0335375276399,0.693568639154,0.718535900815,"(0.02, 0.0, 0.0, 0.0, 0.02, 0.0, 0.0, 0.0, 0.02)",0.0,0.0,0.0,"(0.0, 0.0, 0.0, 0.0, 0.0, 0.0, 0.0, 0.0, 0.0)",0.0,0.0,0.0,"(0.0, 0.0, 0.0, 0.0, 0.0, 0.0, 0.0, 0.0, 0.0)"
2018/12/16/17:23:07.996374,109843,1545002587,996138095,imu_link,-0.0392772209984,-0.0335111780254,0.693566124739,0.718540417424,"(0.02, 0.0, 0.0, 0.0, 0.02, 0.0, 0.0, 0.0, 0.02)",0.0,0.0,0.0,"(0.0, 0.0, 0.0, 0.0, 0.0, 0.0, 0.0, 0.0, 0.0)",0.0,0.0,0.0,"(0.0, 0.0, 0.0, 0.0, 0.0, 0.0, 0.0, 0.0, 0.0)"
2018/12/16/17:23:08.005237,109844,1545002588,5004882,imu_link,-0.0392703533717,-0.0334828804144,0.693565671237,0.718542549712,"(0.02, 0.0, 0.0, 0.0, 0.02, 0.0, 0.0, 0.0, 0.02)",0.0,0.0,0.0,"(0.0, 0.0, 0.0, 0.0, 0.0, 0.0, 0.0, 0.0, 0.0)",0.0,0.0,0.0,"(0.0, 0.0, 0.0, 0.0, 0.0, 0.0, 0.0, 0.0, 0.0)"
2018/12/16/17:23:08.015242,109845,1545002588,15022039,imu_link,-0.0392048183995,-0.0334878358266,0.693568973543,0.718542709937,"(0.02, 0.0, 0.0, 0.0, 0.02, 0.0, 0.0, 0.0, 0.02)",0.0,0.0,0.0,"(0.0, 0.0, 0.0, 0.0, 0.0, 0.0, 0.0, 0.0, 0.0)",0.0,0.0,0.0,"(0.0, 0.0, 0.0, 0.0, 0.0, 0.0, 0.0, 0.0, 0.0)"
2018/12/16/17:23:08.025219,109846,1545002588,24981021,imu_link,-0.0391871714586,-0.0334941645903,0.693566746576,0.718545527142,"(0.02, 0.0, 0.0, 0.0, 0.02, 0.0, 0.0, 0.0, 0.02)",0.0,0.0,0.0,"(0.0, 0.0, 0.0, 0.0, 0.0, 0.0, 0.0, 0.0, 0.0)",0.0,0.0,0.0,"(0.0, 0.0, 0.0, 0.0, 0.0, 0.0, 0.0, 0.0, 0.0)"
2018/12/16/17:23:08.035304,109847,1545002588,35017013,imu_link,-0.0391703203256,-0.0334876489545,0.693556411415,0.718556725359,"(0.02, 0.0, 0.0, 0.0, 0.02, 0.0, 0.0, 0.0, 0.02)",0.0,0.0,0.0,"(0.0, 0.0, 0.0, 0.0, 0.0, 0.0, 0.0, 0.0, 0.0)",0.0,0.0,0.0,"(0.0, 0.0, 0.0, 0.0, 0.0, 0.0, 0.0, 0.0, 0.0)"
2018/12/16/17:23:08.046266,109848,1545002588,46011924,imu_link,-0.0391702356482,-0.0334667890331,0.693555933714,0.718558162908,"(0.02, 0.0, 0.0, 0.0, 0.02, 0.0, 0.0, 0.0, 0.02)",0.0,0.0,0.0,"(0.0, 0.0, 0.0, 0.0, 0.0, 0.0, 0.0, 0.0, 0.0)",0.0,0.0,0.0,"(0.0, 0.0, 0.0, 0.0, 0.0, 0.0, 0.0, 0.0, 0.0)"
