time,.header.seq,.header.stamp.secs,.header.stamp.nsecs,.header.frame_id,.orientation.x,.orientation.y,.orientation.z,.orientation.w,.orientation_covariance,.angular_velocity.x,.angular_velocity.y,.angular_velocity.z,.angular_velocity_covariance,.linear_acceleration.x,.linear_acceleration.y,.linear_acceleration.z,.linear_acceleration_covariance
2018/12/16/17:22:06.606134,103704,1545002526,605936050,imu_link,-0.0395222817153,-0.0360138358313,0.707101236992,0.705087819723,"(0.02, 0.0, 0.0, 0.0, 0.02, 0.0, 0.0, 0.0, 0.02)",0.0,0.0,0.0,"(0.0, 0.0, 0.0, 0.0, 0.0, 0.0, 0.0, 0.0, 0.0)",0.0,0.0,0.0,"(0.0, 0.0, 0.0, 0.0, 0.0, 0.0, 0.0, 0.0, 0.0)"
2018/12/16/17:22:06.616014,103705,1545002526,615753889,imu_link,-0.0395295284138,-0.0360256876964,0.707083214171,0.705104881877,"(0.02, 0.0, 0.0, 0.0, 0.02, 0.0, 0.0, 0.0, 0.02)",0.0,0.0,0.0,"(0.0, 0.0, 0.0, 0.0, 0.0, 0.0, 0.0, 0.0, 0.0)",0.0,0.0,0.0,"(0.0, 0.0, 0.0, 0.0, 0.0, 0.0, 0.0, 0.0, 0.0)"
2018/12/16/17:22:06.625669,103706,1545002526,625443935,imu_link,-0.0395202612795,-0.0360378469941,0.70707826338,0.705109744641,"(0.02, 0.0, 0.0, 0.0, 0.02, 0.0, 0.0, 0.0, 0.02)",0.0,0.0,0.0,"(0.0, 0.0, 0.0, 0.0, 0.0, 0.0, 0.0, 0.0, 0.0)",0.0,0.0,0.0,"(0.0, 0.0, 0.0, 0.0, 0.0, 0.0, 0.0, 0.0, 0.0)"
2018/12/16/17:22:06.635804,103707,1545002526,635509967,imu_link,-0.03951532777,-0.0360209447824,0.707065047633,0.705124137173,"(0.02, 0.0, 0.0, 0.0, 0.02, 0.0, 0.0, 0.0, 0.02)",0.0,0.0,0.0,"(0.0, 0.0, 0.0, 0.0, 0.0, 0.0, 0.0, 0.0, 0.0)",0.0,0.0,0.0,"(0.0, 0.0, 0.0, 0.0, 0.0, 0.0, 0.0, 0.0, 0.0)"
2018/12/16/17:22:06.645731,103708,1545002526,645458936,imu_link,-0.0394560717239,-0.0360500285415,0.707051795676,0.705139257223,"(0.02, 0.0, 0.0, 0.0, 0.02, 0.0, 0.0, 0.0, 0.02)",0.0,0.0,0.0,"(0.0, 0.0, 0.0, 0.0, 0.0, 0.0, 0.0, 0.0, 0.0)",0.0,0.0,0.0,"(0.0, 0.0, 0.0, 0.0, 0.0, 0.0, 0.0, 0.0, 0.0)"
2018/12/16/17:22:06.655722,103709,1545002526,655522108,imu_link,-0.0394441375557,-0.0360498206554,0.707050535147,0.705141199471,"(0.02, 0.0, 0.0, 0.0, 0.02, 0.0, 0.0, 0.0, 0.02)",0.0,0.0,0.0,"(0.0, 0.0, 0.0, 0.0, 0.0, 0.0, 0.0, 0.0, 0.0)",0.0,0.0,0.0,"(0.0, 0.0, 0.0, 0.0, 0.0, 0.0, 0.0, 0.0, 0.0)"
2018/12/16/17:22:06.666601,103710,1545002526,666420936,imu_link,-0.0394486294963,-0.0360539594445,0.707043920996,0.705147368584,"(0.02, 0.0, 0.0, 0.0, 0.02, 0.0, 0.0, 0.0, 0.02)",0.0,0.0,0.0,"(0.0, 0.0, 0.0, 0.0, 0.0, 0.0, 0.0, 0.0, 0.0)",0.0,0.0,0.0,"(0.0, 0.0, 0.0, 0.0, 0.0, 0.0, 0.0, 0.0, 0.0)"
2018/12/16/17:22:06.675730,103711,1545002526,675481081,imu_link,-0.0394745362229,-0.0360512549513,0.707031158162,0.705158854014,"(0.02, 0.0, 0.0, 0.0, 0.02, 0.0, 0.0, 0.0, 0.02)",0.0,0.0,0.0,"(0.0, 0.0, 0.0, 0.0, 0.0, 0.0, 0.0, 0.0, 0.0)",0.0,0.0,0.0,"(0.0, 0.0, 0.0, 0.0, 0.0, 0.0, 0.0, 0.0, 0.0)"
2018/12/16/17:22:06.685718,103712,1545002526,685473918,imu_link,-0.0394705461189,-0.0360592897444,0.70702415687,0.705165686356,"(0.02, 0.0, 0.0, 0.0, 0.02, 0.0, 0.0, 0.0, 0.02)",0.0,0.0,0.0,"(0.0, 0.0, 0.0, 0.0, 0.0, 0.0, 0.0, 0.0, 0.0)",0.0,0.0,0.0,"(0.0, 0.0, 0.0, 0.0, 0.0, 0.0, 0.0, 0.0, 0.0)"
2018/12/16/17:22:06.695675,103713,1545002526,695410966,imu_link,-0.039485180398,-0.036070701337,0.707011332986,0.705177140911,"(0.02, 0.0, 0.0, 0.0, 0.02, 0.0, 0.0, 0.0, 0.02)",0.0,0.0,0.0,"(0.0, 0.0, 0.0, 0.0, 0.0, 0.0, 0.0, 0.0, 0.0)",0.0,0.0,0.0,"(0.0, 0.0, 0.0, 0.0, 0.0, 0.0, 0.0, 0.0, 0.0)"
2018/12/16/17:22:06.705705,103714,1545002526,705471038,imu_link,-0.0394827246208,-0.0360777884557,0.70700357918,0.705184689754,"(0.02, 0.0, 0.0, 0.0, 0.02, 0.0, 0.0, 0.0, 0.02)",0.0,0.0,0.0,"(0.0, 0.0, 0.0, 0.0, 0.0, 0.0, 0.0, 0.0, 0.0)",0.0,0.0,0.0,"(0.0, 0.0, 0.0, 0.0, 0.0, 0.0, 0.0, 0.0, 0.0)"
2018/12/16/17:22:06.715797,103715,1545002526,715567111,imu_link,-0.0394890134595,-0.0360958556646,0.707001197434,0.705185800939,"(0.02, 0.0, 0.0, 0.0, 0.02, 0.0, 0.0, 0.0, 0.02)",0.0,0.0,0.0,"(0.0, 0.0, 0.0, 0.0, 0.0, 0.0, 0.0, 0.0, 0.0)",0.0,0.0,0.0,"(0.0, 0.0, 0.0, 0.0, 0.0, 0.0, 0.0, 0.0, 0.0)"
2018/12/16/17:22:06.725663,103716,1545002526,725442886,imu_link,-0.039507918809,-0.0361024344908,0.70699676506,0.705188849011,"(0.02, 0.0, 0.0, 0.0, 0.02, 0.0, 0.0, 0.0, 0.02)",0.0,0.0,0.0,"(0.0, 0.0, 0.0, 0.0, 0.0, 0.0, 0.0, 0.0, 0.0)",0.0,0.0,0.0,"(0.0, 0.0, 0.0, 0.0, 0.0, 0.0, 0.0, 0.0, 0.0)"
2018/12/16/17:22:06.735948,103717,1545002526,735615015,imu_link,-0.0395017746721,-0.0361246114607,0.706999540475,0.705185274954,"(0.02, 0.0, 0.0, 0.0, 0.02, 0.0, 0.0, 0.0, 0.02)",0.0,0.0,0.0,"(0.0, 0.0, 0.0, 0.0, 0.0, 0.0, 0.0, 0.0, 0.0)",0.0,0.0,0.0,"(0.0, 0.0, 0.0, 0.0, 0.0, 0.0, 0.0, 0.0, 0.0)"
2018/12/16/17:22:06.745817,103718,1545002526,745651960,imu_link,-0.0395001603737,-0.0361415272484,0.706991566185,0.705192493353,"(0.02, 0.0, 0.0, 0.0, 0.02, 0.0, 0.0, 0.0, 0.02)",0.0,0.0,0.0,"(0.0, 0.0, 0.0, 0.0, 0.0, 0.0, 0.0, 0.0, 0.0)",0.0,0.0,0.0,"(0.0, 0.0, 0.0, 0.0, 0.0, 0.0, 0.0, 0.0, 0.0)"
2018/12/16/17:22:06.755817,103719,1545002526,755506992,imu_link,-0.0394911888565,-0.0361435120568,0.706982895171,0.705201587118,"(0.02, 0.0, 0.0, 0.0, 0.02, 0.0, 0.0, 0.0, 0.02)",0.0,0.0,0.0,"(0.0, 0.0, 0.0, 0.0, 0.0, 0.0, 0.0, 0.0, 0.0)",0.0,0.0,0.0,"(0.0, 0.0, 0.0, 0.0, 0.0, 0.0, 0.0, 0.0, 0.0)"
2018/12/16/17:22:06.765825,103720,1545002526,765573024,imu_link,-0.0394863487281,-0.0361613597938,0.706971482347,0.705212384654,"(0.02, 0.0, 0.0, 0.0, 0.02, 0.0, 0.0, 0.0, 0.02)",0.0,0.0,0.0,"(0.0, 0.0, 0.0, 0.0, 0.0, 0.0, 0.0, 0.0, 0.0)",0.0,0.0,0.0,"(0.0, 0.0, 0.0, 0.0, 0.0, 0.0, 0.0, 0.0, 0.0)"
2018/12/16/17:22:06.775645,103721,1545002526,775446891,imu_link,-0.0395051186777,-0.0361718748649,0.706965011413,0.705217281201,"(0.02, 0.0, 0.0, 0.0, 0.02, 0.0, 0.0, 0.0, 0.02)",0.0,0.0,0.0,"(0.0, 0.0, 0.0, 0.0, 0.0, 0.0, 0.0, 0.0, 0.0)",0.0,0.0,0.0,"(0.0, 0.0, 0.0, 0.0, 0.0, 0.0, 0.0, 0.0, 0.0)"
2018/12/16/17:22:06.785708,103722,1545002526,785465002,imu_link,-0.0394856086892,-0.0361894468404,0.706958414733,0.705224085296,"(0.02, 0.0, 0.0, 0.0, 0.02, 0.0, 0.0, 0.0, 0.02)",0.0,0.0,0.0,"(0.0, 0.0, 0.0, 0.0, 0.0, 0.0, 0.0, 0.0, 0.0)",0.0,0.0,0.0,"(0.0, 0.0, 0.0, 0.0, 0.0, 0.0, 0.0, 0.0, 0.0)"
2018/12/16/17:22:06.795883,103723,1545002526,795548915,imu_link,-0.0394759101793,-0.0362096029719,0.706956817749,0.705225194535,"(0.02, 0.0, 0.0, 0.0, 0.02, 0.0, 0.0, 0.0, 0.02)",0.0,0.0,0.0,"(0.0, 0.0, 0.0, 0.0, 0.0, 0.0, 0.0, 0.0, 0.0)",0.0,0.0,0.0,"(0.0, 0.0, 0.0, 0.0, 0.0, 0.0, 0.0, 0.0, 0.0)"
2018/12/16/17:22:06.805765,103724,1545002526,805530071,imu_link,-0.0394636198952,-0.036233735194,0.706949554219,0.705231924213,"(0.02, 0.0, 0.0, 0.0, 0.02, 0.0, 0.0, 0.0, 0.02)",0.0,0.0,0.0,"(0.0, 0.0, 0.0, 0.0, 0.0, 0.0, 0.0, 0.0, 0.0)",0.0,0.0,0.0,"(0.0, 0.0, 0.0, 0.0, 0.0, 0.0, 0.0, 0.0, 0.0)"
2018/12/16/17:22:06.815798,103725,1545002526,815570116,imu_link,-0.0394837882524,-0.0362237133563,0.706940979552,0.705239905625,"(0.02, 0.0, 0.0, 0.0, 0.02, 0.0, 0.0, 0.0, 0.02)",0.0,0.0,0.0,"(0.0, 0.0, 0.0, 0.0, 0.0, 0.0, 0.0, 0.0, 0.0)",0.0,0.0,0.0,"(0.0, 0.0, 0.0, 0.0, 0.0, 0.0, 0.0, 0.0, 0.0)"
2018/12/16/17:22:06.825763,103726,1545002526,825571060,imu_link,-0.0394929263881,-0.0362493930446,0.706926807932,0.705252280036,"(0.02, 0.0, 0.0, 0.0, 0.02, 0.0, 0.0, 0.0, 0.02)",0.0,0.0,0.0,"(0.0, 0.0, 0.0, 0.0, 0.0, 0.0, 0.0, 0.0, 0.0)",0.0,0.0,0.0,"(0.0, 0.0, 0.0, 0.0, 0.0, 0.0, 0.0, 0.0, 0.0)"
2018/12/16/17:22:06.835735,103727,1545002526,835515022,imu_link,-0.0394805081809,-0.0362926016572,0.706908721748,0.705268881815,"(0.02, 0.0, 0.0, 0.0, 0.02, 0.0, 0.0, 0.0, 0.02)",0.0,0.0,0.0,"(0.0, 0.0, 0.0, 0.0, 0.0, 0.0, 0.0, 0.0, 0.0)",0.0,0.0,0.0,"(0.0, 0.0, 0.0, 0.0, 0.0, 0.0, 0.0, 0.0, 0.0)"
2018/12/16/17:22:06.845731,103728,1545002526,845482110,imu_link,-0.0394995821335,-0.0363293481232,0.706896474177,0.705278197786,"(0.02, 0.0, 0.0, 0.0, 0.02, 0.0, 0.0, 0.0, 0.02)",0.0,0.0,0.0,"(0.0, 0.0, 0.0, 0.0, 0.0, 0.0, 0.0, 0.0, 0.0)",0.0,0.0,0.0,"(0.0, 0.0, 0.0, 0.0, 0.0, 0.0, 0.0, 0.0, 0.0)"
2018/12/16/17:22:06.855702,103729,1545002526,855447053,imu_link,-0.0395029476754,-0.0363498469207,0.706884730513,0.705288723518,"(0.02, 0.0, 0.0, 0.0, 0.02, 0.0, 0.0, 0.0, 0.02)",0.0,0.0,0.0,"(0.0, 0.0, 0.0, 0.0, 0.0, 0.0, 0.0, 0.0, 0.0)",0.0,0.0,0.0,"(0.0, 0.0, 0.0, 0.0, 0.0, 0.0, 0.0, 0.0, 0.0)"
2018/12/16/17:22:06.866342,103730,1545002526,865617036,imu_link,-0.0394953984771,-0.0363602565772,0.706870538206,0.705302833865,"(0.02, 0.0, 0.0, 0.0, 0.02, 0.0, 0.0, 0.0, 0.02)",0.0,0.0,0.0,"(0.0, 0.0, 0.0, 0.0, 0.0, 0.0, 0.0, 0.0, 0.0)",0.0,0.0,0.0,"(0.0, 0.0, 0.0, 0.0, 0.0, 0.0, 0.0, 0.0, 0.0)"
2018/12/16/17:22:06.875771,103731,1545002526,875502109,imu_link,-0.0394937698755,-0.0363800305004,0.706844702064,0.705327798039,"(0.02, 0.0, 0.0, 0.0, 0.02, 0.0, 0.0, 0.0, 0.02)",0.0,0.0,0.0,"(0.0, 0.0, 0.0, 0.0, 0.0, 0.0, 0.0, 0.0, 0.0)",0.0,0.0,0.0,"(0.0, 0.0, 0.0, 0.0, 0.0, 0.0, 0.0, 0.0, 0.0)"
2018/12/16/17:22:06.885666,103732,1545002526,885471105,imu_link,-0.0395046028183,-0.0363882807848,0.706833963409,0.705337527393,"(0.02, 0.0, 0.0, 0.0, 0.02, 0.0, 0.0, 0.0, 0.02)",0.0,0.0,0.0,"(0.0, 0.0, 0.0, 0.0, 0.0, 0.0, 0.0, 0.0, 0.0)",0.0,0.0,0.0,"(0.0, 0.0, 0.0, 0.0, 0.0, 0.0, 0.0, 0.0, 0.0)"
2018/12/16/17:22:06.895737,103733,1545002526,895510911,imu_link,-0.0394667334247,-0.0364701821398,0.706796868755,0.705372588839,"(0.02, 0.0, 0.0, 0.0, 0.02, 0.0, 0.0, 0.0, 0.02)",0.0,0.0,0.0,"(0.0, 0.0, 0.0, 0.0, 0.0, 0.0, 0.0, 0.0, 0.0)",0.0,0.0,0.0,"(0.0, 0.0, 0.0, 0.0, 0.0, 0.0, 0.0, 0.0, 0.0)"
2018/12/16/17:22:06.905770,103734,1545002526,905498027,imu_link,-0.0394815641065,-0.0364923949717,0.706783241006,0.705384265091,"(0.02, 0.0, 0.0, 0.0, 0.02, 0.0, 0.0, 0.0, 0.02)",0.0,0.0,0.0,"(0.0, 0.0, 0.0, 0.0, 0.0, 0.0, 0.0, 0.0, 0.0)",0.0,0.0,0.0,"(0.0, 0.0, 0.0, 0.0, 0.0, 0.0, 0.0, 0.0, 0.0)"
2018/12/16/17:22:06.916166,103735,1545002526,915877103,imu_link,-0.039487109894,-0.0365059790857,0.706766761002,0.705399764096,"(0.02, 0.0, 0.0, 0.0, 0.02, 0.0, 0.0, 0.0, 0.02)",0.0,0.0,0.0,"(0.0, 0.0, 0.0, 0.0, 0.0, 0.0, 0.0, 0.0, 0.0)",0.0,0.0,0.0,"(0.0, 0.0, 0.0, 0.0, 0.0, 0.0, 0.0, 0.0, 0.0)"
2018/12/16/17:22:06.925804,103736,1545002526,925569057,imu_link,-0.0394942041194,-0.0365303756703,0.706756033201,0.705408852388,"(0.02, 0.0, 0.0, 0.0, 0.02, 0.0, 0.0, 0.0, 0.02)",0.0,0.0,0.0,"(0.0, 0.0, 0.0, 0.0, 0.0, 0.0, 0.0, 0.0, 0.0)",0.0,0.0,0.0,"(0.0, 0.0, 0.0, 0.0, 0.0, 0.0, 0.0, 0.0, 0.0)"
2018/12/16/17:22:06.935818,103737,1545002526,935492992,imu_link,-0.0395155173339,-0.0365483079769,0.706741634955,0.705421155407,"(0.02, 0.0, 0.0, 0.0, 0.02, 0.0, 0.0, 0.0, 0.02)",0.0,0.0,0.0,"(0.0, 0.0, 0.0, 0.0, 0.0, 0.0, 0.0, 0.0, 0.0)",0.0,0.0,0.0,"(0.0, 0.0, 0.0, 0.0, 0.0, 0.0, 0.0, 0.0, 0.0)"
2018/12/16/17:22:06.945696,103738,1545002526,945485115,imu_link,-0.0395144918178,-0.0365762075655,0.706727379736,0.705434048447,"(0.02, 0.0, 0.0, 0.0, 0.02, 0.0, 0.0, 0.0, 0.02)",0.0,0.0,0.0,"(0.0, 0.0, 0.0, 0.0, 0.0, 0.0, 0.0, 0.0, 0.0)",0.0,0.0,0.0,"(0.0, 0.0, 0.0, 0.0, 0.0, 0.0, 0.0, 0.0, 0.0)"
2018/12/16/17:22:06.956663,103739,1545002526,956312894,imu_link,-0.0395175087604,-0.0365913090623,0.706715057637,0.705445440776,"(0.02, 0.0, 0.0, 0.0, 0.02, 0.0, 0.0, 0.0, 0.02)",0.0,0.0,0.0,"(0.0, 0.0, 0.0, 0.0, 0.0, 0.0, 0.0, 0.0, 0.0)",0.0,0.0,0.0,"(0.0, 0.0, 0.0, 0.0, 0.0, 0.0, 0.0, 0.0, 0.0)"
2018/12/16/17:22:06.966216,103740,1545002526,965630054,imu_link,-0.0395305221544,-0.0366118655926,0.706702311083,0.705456414406,"(0.02, 0.0, 0.0, 0.0, 0.02, 0.0, 0.0, 0.0, 0.02)",0.0,0.0,0.0,"(0.0, 0.0, 0.0, 0.0, 0.0, 0.0, 0.0, 0.0, 0.0)",0.0,0.0,0.0,"(0.0, 0.0, 0.0, 0.0, 0.0, 0.0, 0.0, 0.0, 0.0)"
2018/12/16/17:22:06.975820,103741,1545002526,975630044,imu_link,-0.039541375315,-0.0366398035714,0.70668569522,0.70547100054,"(0.02, 0.0, 0.0, 0.0, 0.02, 0.0, 0.0, 0.0, 0.02)",0.0,0.0,0.0,"(0.0, 0.0, 0.0, 0.0, 0.0, 0.0, 0.0, 0.0, 0.0)",0.0,0.0,0.0,"(0.0, 0.0, 0.0, 0.0, 0.0, 0.0, 0.0, 0.0, 0.0)"
2018/12/16/17:22:06.985753,103742,1545002526,985476016,imu_link,-0.0395496208603,-0.0366676255135,0.706667152489,0.705487667024,"(0.02, 0.0, 0.0, 0.0, 0.02, 0.0, 0.0, 0.0, 0.02)",0.0,0.0,0.0,"(0.0, 0.0, 0.0, 0.0, 0.0, 0.0, 0.0, 0.0, 0.0)",0.0,0.0,0.0,"(0.0, 0.0, 0.0, 0.0, 0.0, 0.0, 0.0, 0.0, 0.0)"
2018/12/16/17:22:06.996012,103743,1545002526,995794057,imu_link,-0.0395637723009,-0.0366622338296,0.706647222854,0.705507116169,"(0.02, 0.0, 0.0, 0.0, 0.02, 0.0, 0.0, 0.0, 0.02)",0.0,0.0,0.0,"(0.0, 0.0, 0.0, 0.0, 0.0, 0.0, 0.0, 0.0, 0.0)",0.0,0.0,0.0,"(0.0, 0.0, 0.0, 0.0, 0.0, 0.0, 0.0, 0.0, 0.0)"
2018/12/16/17:22:07.005858,103744,1545002527,5619049,imu_link,-0.0395661557698,-0.0366566968625,0.70663422532,0.70552028851,"(0.02, 0.0, 0.0, 0.0, 0.02, 0.0, 0.0, 0.0, 0.02)",0.0,0.0,0.0,"(0.0, 0.0, 0.0, 0.0, 0.0, 0.0, 0.0, 0.0, 0.0)",0.0,0.0,0.0,"(0.0, 0.0, 0.0, 0.0, 0.0, 0.0, 0.0, 0.0, 0.0)"
2018/12/16/17:22:07.016463,103745,1545002527,16159057,imu_link,-0.0395547605343,-0.0366660480403,0.706632515375,0.705522154192,"(0.02, 0.0, 0.0, 0.0, 0.02, 0.0, 0.0, 0.0, 0.02)",0.0,0.0,0.0,"(0.0, 0.0, 0.0, 0.0, 0.0, 0.0, 0.0, 0.0, 0.0)",0.0,0.0,0.0,"(0.0, 0.0, 0.0, 0.0, 0.0, 0.0, 0.0, 0.0, 0.0)"
2018/12/16/17:22:07.025816,103746,1545002527,25526046,imu_link,-0.0395538071139,-0.0366767948977,0.706625880514,0.705528294292,"(0.02, 0.0, 0.0, 0.0, 0.02, 0.0, 0.0, 0.0, 0.02)",0.0,0.0,0.0,"(0.0, 0.0, 0.0, 0.0, 0.0, 0.0, 0.0, 0.0, 0.0)",0.0,0.0,0.0,"(0.0, 0.0, 0.0, 0.0, 0.0, 0.0, 0.0, 0.0, 0.0)"
2018/12/16/17:22:07.035938,103747,1545002527,35655021,imu_link,-0.0395619580836,-0.0366745831776,0.706611438117,0.705542416828,"(0.02, 0.0, 0.0, 0.0, 0.02, 0.0, 0.0, 0.0, 0.02)",0.0,0.0,0.0,"(0.0, 0.0, 0.0, 0.0, 0.0, 0.0, 0.0, 0.0, 0.0)",0.0,0.0,0.0,"(0.0, 0.0, 0.0, 0.0, 0.0, 0.0, 0.0, 0.0, 0.0)"
2018/12/16/17:22:07.045734,103748,1545002527,45527935,imu_link,-0.0395515725712,-0.0366714023923,0.706601615608,0.705553001676,"(0.02, 0.0, 0.0, 0.0, 0.02, 0.0, 0.0, 0.0, 0.02)",0.0,0.0,0.0,"(0.0, 0.0, 0.0, 0.0, 0.0, 0.0, 0.0, 0.0, 0.0)",0.0,0.0,0.0,"(0.0, 0.0, 0.0, 0.0, 0.0, 0.0, 0.0, 0.0, 0.0)"
2018/12/16/17:22:07.055743,103749,1545002527,55504083,imu_link,-0.0395726955708,-0.0366949164486,0.706583858452,0.705568377868,"(0.02, 0.0, 0.0, 0.0, 0.02, 0.0, 0.0, 0.0, 0.02)",0.0,0.0,0.0,"(0.0, 0.0, 0.0, 0.0, 0.0, 0.0, 0.0, 0.0, 0.0)",0.0,0.0,0.0,"(0.0, 0.0, 0.0, 0.0, 0.0, 0.0, 0.0, 0.0, 0.0)"
2018/12/16/17:22:07.065923,103750,1545002527,65675020,imu_link,-0.0395873055557,-0.0367131542081,0.706573252864,0.705577230276,"(0.02, 0.0, 0.0, 0.0, 0.02, 0.0, 0.0, 0.0, 0.02)",0.0,0.0,0.0,"(0.0, 0.0, 0.0, 0.0, 0.0, 0.0, 0.0, 0.0, 0.0)",0.0,0.0,0.0,"(0.0, 0.0, 0.0, 0.0, 0.0, 0.0, 0.0, 0.0, 0.0)"
2018/12/16/17:22:07.075735,103751,1545002527,75511932,imu_link,-0.0395902238975,-0.0367097886464,0.706555430093,0.705595089124,"(0.02, 0.0, 0.0, 0.0, 0.02, 0.0, 0.0, 0.0, 0.02)",0.0,0.0,0.0,"(0.0, 0.0, 0.0, 0.0, 0.0, 0.0, 0.0, 0.0, 0.0)",0.0,0.0,0.0,"(0.0, 0.0, 0.0, 0.0, 0.0, 0.0, 0.0, 0.0, 0.0)"
2018/12/16/17:22:07.085897,103752,1545002527,85633993,imu_link,-0.0395972504581,-0.0367051365954,0.70654313911,0.70560724435,"(0.02, 0.0, 0.0, 0.0, 0.02, 0.0, 0.0, 0.0, 0.02)",0.0,0.0,0.0,"(0.0, 0.0, 0.0, 0.0, 0.0, 0.0, 0.0, 0.0, 0.0)",0.0,0.0,0.0,"(0.0, 0.0, 0.0, 0.0, 0.0, 0.0, 0.0, 0.0, 0.0)"
2018/12/16/17:22:07.095650,103753,1545002527,95462083,imu_link,-0.0396064006104,-0.0367058939659,0.706523829196,0.705626026417,"(0.02, 0.0, 0.0, 0.0, 0.02, 0.0, 0.0, 0.0, 0.02)",0.0,0.0,0.0,"(0.0, 0.0, 0.0, 0.0, 0.0, 0.0, 0.0, 0.0, 0.0)",0.0,0.0,0.0,"(0.0, 0.0, 0.0, 0.0, 0.0, 0.0, 0.0, 0.0, 0.0)"
2018/12/16/17:22:07.105712,103754,1545002527,105479955,imu_link,-0.0396361906693,-0.0367142526167,0.706517128266,0.705630628241,"(0.02, 0.0, 0.0, 0.0, 0.02, 0.0, 0.0, 0.0, 0.02)",0.0,0.0,0.0,"(0.0, 0.0, 0.0, 0.0, 0.0, 0.0, 0.0, 0.0, 0.0)",0.0,0.0,0.0,"(0.0, 0.0, 0.0, 0.0, 0.0, 0.0, 0.0, 0.0, 0.0)"
2018/12/16/17:22:07.115960,103755,1545002527,115711927,imu_link,-0.0396648863174,-0.0367160992959,0.706508362598,0.70563769629,"(0.02, 0.0, 0.0, 0.0, 0.02, 0.0, 0.0, 0.0, 0.02)",0.0,0.0,0.0,"(0.0, 0.0, 0.0, 0.0, 0.0, 0.0, 0.0, 0.0, 0.0)",0.0,0.0,0.0,"(0.0, 0.0, 0.0, 0.0, 0.0, 0.0, 0.0, 0.0, 0.0)"
2018/12/16/17:22:07.125893,103756,1545002527,125621080,imu_link,-0.0396798785848,-0.0367215807554,0.706490738079,0.705654214011,"(0.02, 0.0, 0.0, 0.0, 0.02, 0.0, 0.0, 0.0, 0.02)",0.0,0.0,0.0,"(0.0, 0.0, 0.0, 0.0, 0.0, 0.0, 0.0, 0.0, 0.0)",0.0,0.0,0.0,"(0.0, 0.0, 0.0, 0.0, 0.0, 0.0, 0.0, 0.0, 0.0)"
2018/12/16/17:22:07.135900,103757,1545002527,135653972,imu_link,-0.0396924856761,-0.0367131113114,0.706467429798,0.705677280826,"(0.02, 0.0, 0.0, 0.0, 0.02, 0.0, 0.0, 0.0, 0.02)",0.0,0.0,0.0,"(0.0, 0.0, 0.0, 0.0, 0.0, 0.0, 0.0, 0.0, 0.0)",0.0,0.0,0.0,"(0.0, 0.0, 0.0, 0.0, 0.0, 0.0, 0.0, 0.0, 0.0)"
2018/12/16/17:22:07.145717,103758,1545002527,145493984,imu_link,-0.0396622085883,-0.0367455047109,0.706459620049,0.705685115567,"(0.02, 0.0, 0.0, 0.0, 0.02, 0.0, 0.0, 0.0, 0.02)",0.0,0.0,0.0,"(0.0, 0.0, 0.0, 0.0, 0.0, 0.0, 0.0, 0.0, 0.0)",0.0,0.0,0.0,"(0.0, 0.0, 0.0, 0.0, 0.0, 0.0, 0.0, 0.0, 0.0)"
2018/12/16/17:22:07.155957,103759,1545002527,155669927,imu_link,-0.0396597798426,-0.0367678736862,0.706445262168,0.705698460313,"(0.02, 0.0, 0.0, 0.0, 0.02, 0.0, 0.0, 0.0, 0.02)",0.0,0.0,0.0,"(0.0, 0.0, 0.0, 0.0, 0.0, 0.0, 0.0, 0.0, 0.0)",0.0,0.0,0.0,"(0.0, 0.0, 0.0, 0.0, 0.0, 0.0, 0.0, 0.0, 0.0)"
2018/12/16/17:22:07.166179,103760,1545002527,165942907,imu_link,-0.0396619825605,-0.036779941644,0.70642611472,0.705716874868,"(0.02, 0.0, 0.0, 0.0, 0.02, 0.0, 0.0, 0.0, 0.02)",0.0,0.0,0.0,"(0.0, 0.0, 0.0, 0.0, 0.0, 0.0, 0.0, 0.0, 0.0)",0.0,0.0,0.0,"(0.0, 0.0, 0.0, 0.0, 0.0, 0.0, 0.0, 0.0, 0.0)"
2018/12/16/17:22:07.175900,103761,1545002527,175685882,imu_link,-0.0396820756187,-0.0367605130432,0.706399134102,0.705743764334,"(0.02, 0.0, 0.0, 0.0, 0.02, 0.0, 0.0, 0.0, 0.02)",0.0,0.0,0.0,"(0.0, 0.0, 0.0, 0.0, 0.0, 0.0, 0.0, 0.0, 0.0)",0.0,0.0,0.0,"(0.0, 0.0, 0.0, 0.0, 0.0, 0.0, 0.0, 0.0, 0.0)"
2018/12/16/17:22:07.185943,103762,1545002527,185504913,imu_link,-0.039679057796,-0.0367434116658,0.70638112637,0.70576284854,"(0.02, 0.0, 0.0, 0.0, 0.02, 0.0, 0.0, 0.0, 0.02)",0.0,0.0,0.0,"(0.0, 0.0, 0.0, 0.0, 0.0, 0.0, 0.0, 0.0, 0.0)",0.0,0.0,0.0,"(0.0, 0.0, 0.0, 0.0, 0.0, 0.0, 0.0, 0.0, 0.0)"
2018/12/16/17:22:07.195923,103763,1545002527,195651054,imu_link,-0.0396973229837,-0.036733244973,0.706355358076,0.705788140576,"(0.02, 0.0, 0.0, 0.0, 0.02, 0.0, 0.0, 0.0, 0.02)",0.0,0.0,0.0,"(0.0, 0.0, 0.0, 0.0, 0.0, 0.0, 0.0, 0.0, 0.0)",0.0,0.0,0.0,"(0.0, 0.0, 0.0, 0.0, 0.0, 0.0, 0.0, 0.0, 0.0)"
2018/12/16/17:22:07.205909,103764,1545002527,205657958,imu_link,-0.0397036359651,-0.036741435406,0.706331461873,0.705811273772,"(0.02, 0.0, 0.0, 0.0, 0.02, 0.0, 0.0, 0.0, 0.02)",0.0,0.0,0.0,"(0.0, 0.0, 0.0, 0.0, 0.0, 0.0, 0.0, 0.0, 0.0)",0.0,0.0,0.0,"(0.0, 0.0, 0.0, 0.0, 0.0, 0.0, 0.0, 0.0, 0.0)"
2018/12/16/17:22:07.215932,103765,1545002527,215675115,imu_link,-0.0397017729611,-0.0367426862446,0.706304626603,0.705838167479,"(0.02, 0.0, 0.0, 0.0, 0.02, 0.0, 0.0, 0.0, 0.02)",0.0,0.0,0.0,"(0.0, 0.0, 0.0, 0.0, 0.0, 0.0, 0.0, 0.0, 0.0)",0.0,0.0,0.0,"(0.0, 0.0, 0.0, 0.0, 0.0, 0.0, 0.0, 0.0, 0.0)"
2018/12/16/17:22:07.225696,103766,1545002527,225475072,imu_link,-0.039687699227,-0.0367326141561,0.706279840421,0.705864284833,"(0.02, 0.0, 0.0, 0.0, 0.02, 0.0, 0.0, 0.0, 0.02)",0.0,0.0,0.0,"(0.0, 0.0, 0.0, 0.0, 0.0, 0.0, 0.0, 0.0, 0.0)",0.0,0.0,0.0,"(0.0, 0.0, 0.0, 0.0, 0.0, 0.0, 0.0, 0.0, 0.0)"
2018/12/16/17:22:07.235821,103767,1545002527,235563039,imu_link,-0.0397011391338,-0.0367238862663,0.70625884836,0.705884986979,"(0.02, 0.0, 0.0, 0.0, 0.02, 0.0, 0.0, 0.0, 0.02)",0.0,0.0,0.0,"(0.0, 0.0, 0.0, 0.0, 0.0, 0.0, 0.0, 0.0, 0.0)",0.0,0.0,0.0,"(0.0, 0.0, 0.0, 0.0, 0.0, 0.0, 0.0, 0.0, 0.0)"
2018/12/16/17:22:07.245707,103768,1545002527,245471000,imu_link,-0.0396952282478,-0.0367474134519,0.70623235998,0.705910596447,"(0.02, 0.0, 0.0, 0.0, 0.02, 0.0, 0.0, 0.0, 0.02)",0.0,0.0,0.0,"(0.0, 0.0, 0.0, 0.0, 0.0, 0.0, 0.0, 0.0, 0.0)",0.0,0.0,0.0,"(0.0, 0.0, 0.0, 0.0, 0.0, 0.0, 0.0, 0.0, 0.0)"
2018/12/16/17:22:07.255897,103769,1545002527,255665063,imu_link,-0.0396724916557,-0.0367611134642,0.706203317446,0.705940215862,"(0.02, 0.0, 0.0, 0.0, 0.02, 0.0, 0.0, 0.0, 0.02)",0.0,0.0,0.0,"(0.0, 0.0, 0.0, 0.0, 0.0, 0.0, 0.0, 0.0, 0.0)",0.0,0.0,0.0,"(0.0, 0.0, 0.0, 0.0, 0.0, 0.0, 0.0, 0.0, 0.0)"
2018/12/16/17:22:07.265877,103770,1545002527,265616893,imu_link,-0.0396678533929,-0.0367576070575,0.706174792144,0.705969193854,"(0.02, 0.0, 0.0, 0.0, 0.02, 0.0, 0.0, 0.0, 0.02)",0.0,0.0,0.0,"(0.0, 0.0, 0.0, 0.0, 0.0, 0.0, 0.0, 0.0, 0.0)",0.0,0.0,0.0,"(0.0, 0.0, 0.0, 0.0, 0.0, 0.0, 0.0, 0.0, 0.0)"
2018/12/16/17:22:07.275862,103771,1545002527,275592088,imu_link,-0.0396827990977,-0.0367408206646,0.706150398119,0.705993628009,"(0.02, 0.0, 0.0, 0.0, 0.02, 0.0, 0.0, 0.0, 0.02)",0.0,0.0,0.0,"(0.0, 0.0, 0.0, 0.0, 0.0, 0.0, 0.0, 0.0, 0.0)",0.0,0.0,0.0,"(0.0, 0.0, 0.0, 0.0, 0.0, 0.0, 0.0, 0.0, 0.0)"
2018/12/16/17:22:07.285793,103772,1545002527,285564899,imu_link,-0.0396702638811,-0.0367627935579,0.706116820132,0.706026772509,"(0.02, 0.0, 0.0, 0.0, 0.02, 0.0, 0.0, 0.0, 0.02)",0.0,0.0,0.0,"(0.0, 0.0, 0.0, 0.0, 0.0, 0.0, 0.0, 0.0, 0.0)",0.0,0.0,0.0,"(0.0, 0.0, 0.0, 0.0, 0.0, 0.0, 0.0, 0.0, 0.0)"
2018/12/16/17:22:07.295858,103773,1545002527,295623064,imu_link,-0.0396605257429,-0.036796316177,0.706098196188,0.70604419915,"(0.02, 0.0, 0.0, 0.0, 0.02, 0.0, 0.0, 0.0, 0.02)",0.0,0.0,0.0,"(0.0, 0.0, 0.0, 0.0, 0.0, 0.0, 0.0, 0.0, 0.0)",0.0,0.0,0.0,"(0.0, 0.0, 0.0, 0.0, 0.0, 0.0, 0.0, 0.0, 0.0)"
2018/12/16/17:22:07.305770,103774,1545002527,305537939,imu_link,-0.0396672433512,-0.0368086431681,0.706066531333,0.70607484513,"(0.02, 0.0, 0.0, 0.0, 0.02, 0.0, 0.0, 0.0, 0.02)",0.0,0.0,0.0,"(0.0, 0.0, 0.0, 0.0, 0.0, 0.0, 0.0, 0.0, 0.0)",0.0,0.0,0.0,"(0.0, 0.0, 0.0, 0.0, 0.0, 0.0, 0.0, 0.0, 0.0)"
2018/12/16/17:22:07.316334,103775,1545002527,315733909,imu_link,-0.039669034928,-0.0368074525253,0.706040803264,0.706100533376,"(0.02, 0.0, 0.0, 0.0, 0.02, 0.0, 0.0, 0.0, 0.02)",0.0,0.0,0.0,"(0.0, 0.0, 0.0, 0.0, 0.0, 0.0, 0.0, 0.0, 0.0)",0.0,0.0,0.0,"(0.0, 0.0, 0.0, 0.0, 0.0, 0.0, 0.0, 0.0, 0.0)"
2018/12/16/17:22:07.325692,103776,1545002527,325470924,imu_link,-0.0396587297112,-0.036805257829,0.706012156076,0.706129870227,"(0.02, 0.0, 0.0, 0.0, 0.02, 0.0, 0.0, 0.0, 0.02)",0.0,0.0,0.0,"(0.0, 0.0, 0.0, 0.0, 0.0, 0.0, 0.0, 0.0, 0.0)",0.0,0.0,0.0,"(0.0, 0.0, 0.0, 0.0, 0.0, 0.0, 0.0, 0.0, 0.0)"
2018/12/16/17:22:07.335918,103777,1545002527,335731029,imu_link,-0.0396386159289,-0.0368188196328,0.705979102483,0.706163339111,"(0.02, 0.0, 0.0, 0.0, 0.02, 0.0, 0.0, 0.0, 0.02)",0.0,0.0,0.0,"(0.0, 0.0, 0.0, 0.0, 0.0, 0.0, 0.0, 0.0, 0.0)",0.0,0.0,0.0,"(0.0, 0.0, 0.0, 0.0, 0.0, 0.0, 0.0, 0.0, 0.0)"
2018/12/16/17:22:07.345746,103778,1545002527,345483064,imu_link,-0.0396148128159,-0.0368519810278,0.705945778663,0.706196258619,"(0.02, 0.0, 0.0, 0.0, 0.02, 0.0, 0.0, 0.0, 0.02)",0.0,0.0,0.0,"(0.0, 0.0, 0.0, 0.0, 0.0, 0.0, 0.0, 0.0, 0.0)",0.0,0.0,0.0,"(0.0, 0.0, 0.0, 0.0, 0.0, 0.0, 0.0, 0.0, 0.0)"
2018/12/16/17:22:07.355872,103779,1545002527,355643033,imu_link,-0.0396173248275,-0.0368330905862,0.705916773023,0.706226097348,"(0.02, 0.0, 0.0, 0.0, 0.02, 0.0, 0.0, 0.0, 0.02)",0.0,0.0,0.0,"(0.0, 0.0, 0.0, 0.0, 0.0, 0.0, 0.0, 0.0, 0.0)",0.0,0.0,0.0,"(0.0, 0.0, 0.0, 0.0, 0.0, 0.0, 0.0, 0.0, 0.0)"
2018/12/16/17:22:07.366351,103780,1545002527,365592002,imu_link,-0.039612271661,-0.036834831068,0.7058814075,0.706261638275,"(0.02, 0.0, 0.0, 0.0, 0.02, 0.0, 0.0, 0.0, 0.02)",0.0,0.0,0.0,"(0.0, 0.0, 0.0, 0.0, 0.0, 0.0, 0.0, 0.0, 0.0)",0.0,0.0,0.0,"(0.0, 0.0, 0.0, 0.0, 0.0, 0.0, 0.0, 0.0, 0.0)"
2018/12/16/17:22:07.375748,103781,1545002527,375492095,imu_link,-0.0395980685452,-0.0368688408356,0.705840535168,0.70630150818,"(0.02, 0.0, 0.0, 0.0, 0.02, 0.0, 0.0, 0.0, 0.02)",0.0,0.0,0.0,"(0.0, 0.0, 0.0, 0.0, 0.0, 0.0, 0.0, 0.0, 0.0)",0.0,0.0,0.0,"(0.0, 0.0, 0.0, 0.0, 0.0, 0.0, 0.0, 0.0, 0.0)"
2018/12/16/17:22:07.385833,103782,1545002527,385610103,imu_link,-0.0395842688363,-0.0368611455376,0.705807498011,0.706335697358,"(0.02, 0.0, 0.0, 0.0, 0.02, 0.0, 0.0, 0.0, 0.02)",0.0,0.0,0.0,"(0.0, 0.0, 0.0, 0.0, 0.0, 0.0, 0.0, 0.0, 0.0)",0.0,0.0,0.0,"(0.0, 0.0, 0.0, 0.0, 0.0, 0.0, 0.0, 0.0, 0.0)"
2018/12/16/17:22:07.395875,103783,1545002527,395601987,imu_link,-0.0395377137321,-0.0368683384249,0.705781935746,0.706363471585,"(0.02, 0.0, 0.0, 0.0, 0.02, 0.0, 0.0, 0.0, 0.02)",0.0,0.0,0.0,"(0.0, 0.0, 0.0, 0.0, 0.0, 0.0, 0.0, 0.0, 0.0)",0.0,0.0,0.0,"(0.0, 0.0, 0.0, 0.0, 0.0, 0.0, 0.0, 0.0, 0.0)"
2018/12/16/17:22:07.405862,103784,1545002527,405667066,imu_link,-0.0395224513085,-0.0368320070975,0.705744589175,0.706403534778,"(0.02, 0.0, 0.0, 0.0, 0.02, 0.0, 0.0, 0.0, 0.02)",0.0,0.0,0.0,"(0.0, 0.0, 0.0, 0.0, 0.0, 0.0, 0.0, 0.0, 0.0)",0.0,0.0,0.0,"(0.0, 0.0, 0.0, 0.0, 0.0, 0.0, 0.0, 0.0, 0.0)"
2018/12/16/17:22:07.416070,103785,1545002527,415700912,imu_link,-0.0394964535608,-0.0368342382148,0.705711359234,0.706438069826,"(0.02, 0.0, 0.0, 0.0, 0.02, 0.0, 0.0, 0.0, 0.02)",0.0,0.0,0.0,"(0.0, 0.0, 0.0, 0.0, 0.0, 0.0, 0.0, 0.0, 0.0)",0.0,0.0,0.0,"(0.0, 0.0, 0.0, 0.0, 0.0, 0.0, 0.0, 0.0, 0.0)"
2018/12/16/17:22:07.425751,103786,1545002527,425540924,imu_link,-0.0394894085924,-0.0368258970419,0.705676320908,0.706473899041,"(0.02, 0.0, 0.0, 0.0, 0.02, 0.0, 0.0, 0.0, 0.02)",0.0,0.0,0.0,"(0.0, 0.0, 0.0, 0.0, 0.0, 0.0, 0.0, 0.0, 0.0)",0.0,0.0,0.0,"(0.0, 0.0, 0.0, 0.0, 0.0, 0.0, 0.0, 0.0, 0.0)"
2018/12/16/17:22:07.436010,103787,1545002527,435767889,imu_link,-0.0394835332198,-0.0368003546599,0.705637932236,0.706513901555,"(0.02, 0.0, 0.0, 0.0, 0.02, 0.0, 0.0, 0.0, 0.02)",0.0,0.0,0.0,"(0.0, 0.0, 0.0, 0.0, 0.0, 0.0, 0.0, 0.0, 0.0)",0.0,0.0,0.0,"(0.0, 0.0, 0.0, 0.0, 0.0, 0.0, 0.0, 0.0, 0.0)"
2018/12/16/17:22:07.445723,103788,1545002527,445508003,imu_link,-0.0394878367164,-0.0367800511231,0.70560686325,0.706545747369,"(0.02, 0.0, 0.0, 0.0, 0.02, 0.0, 0.0, 0.0, 0.02)",0.0,0.0,0.0,"(0.0, 0.0, 0.0, 0.0, 0.0, 0.0, 0.0, 0.0, 0.0)",0.0,0.0,0.0,"(0.0, 0.0, 0.0, 0.0, 0.0, 0.0, 0.0, 0.0, 0.0)"
2018/12/16/17:22:07.456422,103789,1545002527,455835103,imu_link,-0.0394917547367,-0.0367668813672,0.705565371128,0.706587648355,"(0.02, 0.0, 0.0, 0.0, 0.02, 0.0, 0.0, 0.0, 0.02)",0.0,0.0,0.0,"(0.0, 0.0, 0.0, 0.0, 0.0, 0.0, 0.0, 0.0, 0.0)",0.0,0.0,0.0,"(0.0, 0.0, 0.0, 0.0, 0.0, 0.0, 0.0, 0.0, 0.0)"
2018/12/16/17:22:07.466313,103790,1545002527,466109037,imu_link,-0.0395187898173,-0.0367400257274,0.705520673025,0.706632164351,"(0.02, 0.0, 0.0, 0.0, 0.02, 0.0, 0.0, 0.0, 0.02)",0.0,0.0,0.0,"(0.0, 0.0, 0.0, 0.0, 0.0, 0.0, 0.0, 0.0, 0.0)",0.0,0.0,0.0,"(0.0, 0.0, 0.0, 0.0, 0.0, 0.0, 0.0, 0.0, 0.0)"
2018/12/16/17:22:07.475835,103791,1545002527,475559949,imu_link,-0.0395257030638,-0.0367116980012,0.705480624757,0.706673232916,"(0.02, 0.0, 0.0, 0.0, 0.02, 0.0, 0.0, 0.0, 0.02)",0.0,0.0,0.0,"(0.0, 0.0, 0.0, 0.0, 0.0, 0.0, 0.0, 0.0, 0.0)",0.0,0.0,0.0,"(0.0, 0.0, 0.0, 0.0, 0.0, 0.0, 0.0, 0.0, 0.0)"
2018/12/16/17:22:07.485845,103792,1545002527,485585927,imu_link,-0.0395239480954,-0.0367120618774,0.705442289258,0.706711580892,"(0.02, 0.0, 0.0, 0.0, 0.02, 0.0, 0.0, 0.0, 0.02)",0.0,0.0,0.0,"(0.0, 0.0, 0.0, 0.0, 0.0, 0.0, 0.0, 0.0, 0.0)",0.0,0.0,0.0,"(0.0, 0.0, 0.0, 0.0, 0.0, 0.0, 0.0, 0.0, 0.0)"
2018/12/16/17:22:07.495831,103793,1545002527,495496988,imu_link,-0.0395228093171,-0.0367060921689,0.705401732954,0.706752435784,"(0.02, 0.0, 0.0, 0.0, 0.02, 0.0, 0.0, 0.0, 0.02)",0.0,0.0,0.0,"(0.0, 0.0, 0.0, 0.0, 0.0, 0.0, 0.0, 0.0, 0.0)",0.0,0.0,0.0,"(0.0, 0.0, 0.0, 0.0, 0.0, 0.0, 0.0, 0.0, 0.0)"
2018/12/16/17:22:07.505739,103794,1545002527,505511999,imu_link,-0.0395553332547,-0.0366704292222,0.705360878291,0.706793241768,"(0.02, 0.0, 0.0, 0.0, 0.02, 0.0, 0.0, 0.0, 0.02)",0.0,0.0,0.0,"(0.0, 0.0, 0.0, 0.0, 0.0, 0.0, 0.0, 0.0, 0.0)",0.0,0.0,0.0,"(0.0, 0.0, 0.0, 0.0, 0.0, 0.0, 0.0, 0.0, 0.0)"
2018/12/16/17:22:07.515800,103795,1545002527,515614032,imu_link,-0.0395609815538,-0.0366394589254,0.705324825694,0.706830509421,"(0.02, 0.0, 0.0, 0.0, 0.02, 0.0, 0.0, 0.0, 0.02)",0.0,0.0,0.0,"(0.0, 0.0, 0.0, 0.0, 0.0, 0.0, 0.0, 0.0, 0.0)",0.0,0.0,0.0,"(0.0, 0.0, 0.0, 0.0, 0.0, 0.0, 0.0, 0.0, 0.0)"
2018/12/16/17:22:07.525747,103796,1545002527,525537967,imu_link,-0.0395755191074,-0.036648059001,0.705276897163,0.706877073038,"(0.02, 0.0, 0.0, 0.0, 0.02, 0.0, 0.0, 0.0, 0.02)",0.0,0.0,0.0,"(0.0, 0.0, 0.0, 0.0, 0.0, 0.0, 0.0, 0.0, 0.0)",0.0,0.0,0.0,"(0.0, 0.0, 0.0, 0.0, 0.0, 0.0, 0.0, 0.0, 0.0)"
2018/12/16/17:22:07.535857,103797,1545002527,535610914,imu_link,-0.0395842027247,-0.0366222389146,0.705234057917,0.706920664619,"(0.02, 0.0, 0.0, 0.0, 0.02, 0.0, 0.0, 0.0, 0.02)",0.0,0.0,0.0,"(0.0, 0.0, 0.0, 0.0, 0.0, 0.0, 0.0, 0.0, 0.0)",0.0,0.0,0.0,"(0.0, 0.0, 0.0, 0.0, 0.0, 0.0, 0.0, 0.0, 0.0)"
2018/12/16/17:22:07.545730,103798,1545002527,545480966,imu_link,-0.0395940845118,-0.0365791330383,0.705198720883,0.706957593893,"(0.02, 0.0, 0.0, 0.0, 0.02, 0.0, 0.0, 0.0, 0.02)",0.0,0.0,0.0,"(0.0, 0.0, 0.0, 0.0, 0.0, 0.0, 0.0, 0.0, 0.0)",0.0,0.0,0.0,"(0.0, 0.0, 0.0, 0.0, 0.0, 0.0, 0.0, 0.0, 0.0)"
2018/12/16/17:22:07.555762,103799,1545002527,555537939,imu_link,-0.039606891225,-0.0365696578654,0.70515861471,0.706997370852,"(0.02, 0.0, 0.0, 0.0, 0.02, 0.0, 0.0, 0.0, 0.02)",0.0,0.0,0.0,"(0.0, 0.0, 0.0, 0.0, 0.0, 0.0, 0.0, 0.0, 0.0)",0.0,0.0,0.0,"(0.0, 0.0, 0.0, 0.0, 0.0, 0.0, 0.0, 0.0, 0.0)"
2018/12/16/17:22:07.565905,103800,1545002527,565700054,imu_link,-0.0395546589879,-0.0365997328863,0.705121835754,0.707035420081,"(0.02, 0.0, 0.0, 0.0, 0.02, 0.0, 0.0, 0.0, 0.02)",0.0,0.0,0.0,"(0.0, 0.0, 0.0, 0.0, 0.0, 0.0, 0.0, 0.0, 0.0)",0.0,0.0,0.0,"(0.0, 0.0, 0.0, 0.0, 0.0, 0.0, 0.0, 0.0, 0.0)"
2018/12/16/17:22:07.575730,103801,1545002527,575525045,imu_link,-0.0395424592237,-0.036597772185,0.705087236916,0.707070707445,"(0.02, 0.0, 0.0, 0.0, 0.02, 0.0, 0.0, 0.0, 0.02)",0.0,0.0,0.0,"(0.0, 0.0, 0.0, 0.0, 0.0, 0.0, 0.0, 0.0, 0.0)",0.0,0.0,0.0,"(0.0, 0.0, 0.0, 0.0, 0.0, 0.0, 0.0, 0.0, 0.0)"
2018/12/16/17:22:07.585802,103802,1545002527,585571050,imu_link,-0.0395496730139,-0.0365352543232,0.705041187964,0.707119453721,"(0.02, 0.0, 0.0, 0.0, 0.02, 0.0, 0.0, 0.0, 0.02)",0.0,0.0,0.0,"(0.0, 0.0, 0.0, 0.0, 0.0, 0.0, 0.0, 0.0, 0.0)",0.0,0.0,0.0,"(0.0, 0.0, 0.0, 0.0, 0.0, 0.0, 0.0, 0.0, 0.0)"
2018/12/16/17:22:07.595813,103803,1545002527,595550060,imu_link,-0.0395317589185,-0.0365323016836,0.704998750914,0.707162917707,"(0.02, 0.0, 0.0, 0.0, 0.02, 0.0, 0.0, 0.0, 0.02)",0.0,0.0,0.0,"(0.0, 0.0, 0.0, 0.0, 0.0, 0.0, 0.0, 0.0, 0.0)",0.0,0.0,0.0,"(0.0, 0.0, 0.0, 0.0, 0.0, 0.0, 0.0, 0.0, 0.0)"
2018/12/16/17:22:07.605740,103804,1545002527,605504989,imu_link,-0.0395025110935,-0.0365735521554,0.704963132745,0.707197927295,"(0.02, 0.0, 0.0, 0.0, 0.02, 0.0, 0.0, 0.0, 0.02)",0.0,0.0,0.0,"(0.0, 0.0, 0.0, 0.0, 0.0, 0.0, 0.0, 0.0, 0.0)",0.0,0.0,0.0,"(0.0, 0.0, 0.0, 0.0, 0.0, 0.0, 0.0, 0.0, 0.0)"
2018/12/16/17:22:07.616473,103805,1545002527,615962028,imu_link,-0.0395139613639,-0.0365902233834,0.704927842582,0.707231602208,"(0.02, 0.0, 0.0, 0.0, 0.02, 0.0, 0.0, 0.0, 0.02)",0.0,0.0,0.0,"(0.0, 0.0, 0.0, 0.0, 0.0, 0.0, 0.0, 0.0, 0.0)",0.0,0.0,0.0,"(0.0, 0.0, 0.0, 0.0, 0.0, 0.0, 0.0, 0.0, 0.0)"
2018/12/16/17:22:07.625832,103806,1545002527,625582933,imu_link,-0.0395016188249,-0.0365648031461,0.704881133952,0.707280159682,"(0.02, 0.0, 0.0, 0.0, 0.02, 0.0, 0.0, 0.0, 0.02)",0.0,0.0,0.0,"(0.0, 0.0, 0.0, 0.0, 0.0, 0.0, 0.0, 0.0, 0.0)",0.0,0.0,0.0,"(0.0, 0.0, 0.0, 0.0, 0.0, 0.0, 0.0, 0.0, 0.0)"
2018/12/16/17:22:07.635950,103807,1545002527,635673046,imu_link,-0.0394868190492,-0.0365463478045,0.704847756628,0.707315202409,"(0.02, 0.0, 0.0, 0.0, 0.02, 0.0, 0.0, 0.0, 0.02)",0.0,0.0,0.0,"(0.0, 0.0, 0.0, 0.0, 0.0, 0.0, 0.0, 0.0, 0.0)",0.0,0.0,0.0,"(0.0, 0.0, 0.0, 0.0, 0.0, 0.0, 0.0, 0.0, 0.0)"
2018/12/16/17:22:07.645760,103808,1545002527,645535945,imu_link,-0.0394378380126,-0.0366025309191,0.704797562773,0.707365045201,"(0.02, 0.0, 0.0, 0.0, 0.02, 0.0, 0.0, 0.0, 0.02)",0.0,0.0,0.0,"(0.0, 0.0, 0.0, 0.0, 0.0, 0.0, 0.0, 0.0, 0.0)",0.0,0.0,0.0,"(0.0, 0.0, 0.0, 0.0, 0.0, 0.0, 0.0, 0.0, 0.0)"
2018/12/16/17:22:07.656015,103809,1545002527,655558109,imu_link,-0.0394381212432,-0.0366503246822,0.704752568388,0.707407383086,"(0.02, 0.0, 0.0, 0.0, 0.02, 0.0, 0.0, 0.0, 0.02)",0.0,0.0,0.0,"(0.0, 0.0, 0.0, 0.0, 0.0, 0.0, 0.0, 0.0, 0.0)",0.0,0.0,0.0,"(0.0, 0.0, 0.0, 0.0, 0.0, 0.0, 0.0, 0.0, 0.0)"
2018/12/16/17:22:07.665892,103810,1545002527,665648937,imu_link,-0.03947190144,-0.036655046953,0.704713825347,0.707443849994,"(0.02, 0.0, 0.0, 0.0, 0.02, 0.0, 0.0, 0.0, 0.02)",0.0,0.0,0.0,"(0.0, 0.0, 0.0, 0.0, 0.0, 0.0, 0.0, 0.0, 0.0)",0.0,0.0,0.0,"(0.0, 0.0, 0.0, 0.0, 0.0, 0.0, 0.0, 0.0, 0.0)"
2018/12/16/17:22:07.675776,103811,1545002527,675576925,imu_link,-0.039505300958,-0.0366383994868,0.704682285705,0.707474264615,"(0.02, 0.0, 0.0, 0.0, 0.02, 0.0, 0.0, 0.0, 0.02)",0.0,0.0,0.0,"(0.0, 0.0, 0.0, 0.0, 0.0, 0.0, 0.0, 0.0, 0.0)",0.0,0.0,0.0,"(0.0, 0.0, 0.0, 0.0, 0.0, 0.0, 0.0, 0.0, 0.0)"
2018/12/16/17:22:07.685838,103812,1545002527,685595989,imu_link,-0.0395166615772,-0.0366610100659,0.704635946937,0.707518611828,"(0.02, 0.0, 0.0, 0.0, 0.02, 0.0, 0.0, 0.0, 0.02)",0.0,0.0,0.0,"(0.0, 0.0, 0.0, 0.0, 0.0, 0.0, 0.0, 0.0, 0.0)",0.0,0.0,0.0,"(0.0, 0.0, 0.0, 0.0, 0.0, 0.0, 0.0, 0.0, 0.0)"
2018/12/16/17:22:07.695765,103813,1545002527,695565938,imu_link,-0.0395378320442,-0.036670223761,0.704586286063,0.70756640679,"(0.02, 0.0, 0.0, 0.0, 0.02, 0.0, 0.0, 0.0, 0.02)",0.0,0.0,0.0,"(0.0, 0.0, 0.0, 0.0, 0.0, 0.0, 0.0, 0.0, 0.0)",0.0,0.0,0.0,"(0.0, 0.0, 0.0, 0.0, 0.0, 0.0, 0.0, 0.0, 0.0)"
2018/12/16/17:22:07.705770,103814,1545002527,705543041,imu_link,-0.039594921332,-0.0366716917848,0.70453910417,0.707610118583,"(0.02, 0.0, 0.0, 0.0, 0.02, 0.0, 0.0, 0.0, 0.02)",0.0,0.0,0.0,"(0.0, 0.0, 0.0, 0.0, 0.0, 0.0, 0.0, 0.0, 0.0)",0.0,0.0,0.0,"(0.0, 0.0, 0.0, 0.0, 0.0, 0.0, 0.0, 0.0, 0.0)"
2018/12/16/17:22:07.715862,103815,1545002527,715609073,imu_link,-0.0396634103594,-0.0366523179514,0.70449281511,0.707653372016,"(0.02, 0.0, 0.0, 0.0, 0.02, 0.0, 0.0, 0.0, 0.02)",0.0,0.0,0.0,"(0.0, 0.0, 0.0, 0.0, 0.0, 0.0, 0.0, 0.0, 0.0)",0.0,0.0,0.0,"(0.0, 0.0, 0.0, 0.0, 0.0, 0.0, 0.0, 0.0, 0.0)"
2018/12/16/17:22:07.725765,103816,1545002527,725543975,imu_link,-0.0396973484013,-0.0366591603895,0.704435659753,0.70770801024,"(0.02, 0.0, 0.0, 0.0, 0.02, 0.0, 0.0, 0.0, 0.02)",0.0,0.0,0.0,"(0.0, 0.0, 0.0, 0.0, 0.0, 0.0, 0.0, 0.0, 0.0)",0.0,0.0,0.0,"(0.0, 0.0, 0.0, 0.0, 0.0, 0.0, 0.0, 0.0, 0.0)"
2018/12/16/17:22:07.735825,103817,1545002527,735584974,imu_link,-0.0397221252996,-0.0366475905746,0.704380072422,0.707762545237,"(0.02, 0.0, 0.0, 0.0, 0.02, 0.0, 0.0, 0.0, 0.02)",0.0,0.0,0.0,"(0.0, 0.0, 0.0, 0.0, 0.0, 0.0, 0.0, 0.0, 0.0)",0.0,0.0,0.0,"(0.0, 0.0, 0.0, 0.0, 0.0, 0.0, 0.0, 0.0, 0.0)"
2018/12/16/17:22:07.745730,103818,1545002527,745508909,imu_link,-0.0397761247018,-0.036622985907,0.704328089263,0.707812517184,"(0.02, 0.0, 0.0, 0.0, 0.02, 0.0, 0.0, 0.0, 0.02)",0.0,0.0,0.0,"(0.0, 0.0, 0.0, 0.0, 0.0, 0.0, 0.0, 0.0, 0.0)",0.0,0.0,0.0,"(0.0, 0.0, 0.0, 0.0, 0.0, 0.0, 0.0, 0.0, 0.0)"
2018/12/16/17:22:07.755900,103819,1545002527,755626916,imu_link,-0.0398250457736,-0.0366165728121,0.704275959204,0.707861967909,"(0.02, 0.0, 0.0, 0.0, 0.02, 0.0, 0.0, 0.0, 0.02)",0.0,0.0,0.0,"(0.0, 0.0, 0.0, 0.0, 0.0, 0.0, 0.0, 0.0, 0.0)",0.0,0.0,0.0,"(0.0, 0.0, 0.0, 0.0, 0.0, 0.0, 0.0, 0.0, 0.0)"
2018/12/16/17:22:07.766154,103820,1545002527,765912055,imu_link,-0.0398447084997,-0.0366187650374,0.704216901404,0.7079195018,"(0.02, 0.0, 0.0, 0.0, 0.02, 0.0, 0.0, 0.0, 0.02)",0.0,0.0,0.0,"(0.0, 0.0, 0.0, 0.0, 0.0, 0.0, 0.0, 0.0, 0.0)",0.0,0.0,0.0,"(0.0, 0.0, 0.0, 0.0, 0.0, 0.0, 0.0, 0.0, 0.0)"
2018/12/16/17:22:07.775803,103821,1545002527,775542974,imu_link,-0.0398732629975,-0.0365710727336,0.704162795704,0.707974177978,"(0.02, 0.0, 0.0, 0.0, 0.02, 0.0, 0.0, 0.0, 0.02)",0.0,0.0,0.0,"(0.0, 0.0, 0.0, 0.0, 0.0, 0.0, 0.0, 0.0, 0.0)",0.0,0.0,0.0,"(0.0, 0.0, 0.0, 0.0, 0.0, 0.0, 0.0, 0.0, 0.0)"
2018/12/16/17:22:07.786064,103822,1545002527,785778999,imu_link,-0.0398886868014,-0.0365413070289,0.704114749304,0.708022630541,"(0.02, 0.0, 0.0, 0.0, 0.02, 0.0, 0.0, 0.0, 0.02)",0.0,0.0,0.0,"(0.0, 0.0, 0.0, 0.0, 0.0, 0.0, 0.0, 0.0, 0.0)",0.0,0.0,0.0,"(0.0, 0.0, 0.0, 0.0, 0.0, 0.0, 0.0, 0.0, 0.0)"
2018/12/16/17:22:07.795732,103823,1545002527,795525074,imu_link,-0.0399198875313,-0.036536058211,0.704060840257,0.708074750465,"(0.02, 0.0, 0.0, 0.0, 0.02, 0.0, 0.0, 0.0, 0.02)",0.0,0.0,0.0,"(0.0, 0.0, 0.0, 0.0, 0.0, 0.0, 0.0, 0.0, 0.0)",0.0,0.0,0.0,"(0.0, 0.0, 0.0, 0.0, 0.0, 0.0, 0.0, 0.0, 0.0)"
2018/12/16/17:22:07.805857,103824,1545002527,805644989,imu_link,-0.0399494756926,-0.0365618275541,0.70400465447,0.708127614659,"(0.02, 0.0, 0.0, 0.0, 0.02, 0.0, 0.0, 0.0, 0.02)",0.0,0.0,0.0,"(0.0, 0.0, 0.0, 0.0, 0.0, 0.0, 0.0, 0.0, 0.0)",0.0,0.0,0.0,"(0.0, 0.0, 0.0, 0.0, 0.0, 0.0, 0.0, 0.0, 0.0)"
2018/12/16/17:22:07.816797,103825,1545002527,815677881,imu_link,-0.0399677055929,-0.036578395207,0.703950265545,0.708179798606,"(0.02, 0.0, 0.0, 0.0, 0.02, 0.0, 0.0, 0.0, 0.02)",0.0,0.0,0.0,"(0.0, 0.0, 0.0, 0.0, 0.0, 0.0, 0.0, 0.0, 0.0)",0.0,0.0,0.0,"(0.0, 0.0, 0.0, 0.0, 0.0, 0.0, 0.0, 0.0, 0.0)"
2018/12/16/17:22:07.825822,103826,1545002527,825639963,imu_link,-0.0399954508431,-0.0365370695286,0.703893820263,0.708236469167,"(0.02, 0.0, 0.0, 0.0, 0.02, 0.0, 0.0, 0.0, 0.02)",0.0,0.0,0.0,"(0.0, 0.0, 0.0, 0.0, 0.0, 0.0, 0.0, 0.0, 0.0)",0.0,0.0,0.0,"(0.0, 0.0, 0.0, 0.0, 0.0, 0.0, 0.0, 0.0, 0.0)"
2018/12/16/17:22:07.835885,103827,1545002527,835685968,imu_link,-0.0400339659426,-0.0365477255794,0.703834575625,0.708292619954,"(0.02, 0.0, 0.0, 0.0, 0.02, 0.0, 0.0, 0.0, 0.02)",0.0,0.0,0.0,"(0.0, 0.0, 0.0, 0.0, 0.0, 0.0, 0.0, 0.0, 0.0)",0.0,0.0,0.0,"(0.0, 0.0, 0.0, 0.0, 0.0, 0.0, 0.0, 0.0, 0.0)"
2018/12/16/17:22:07.845820,103828,1545002527,845576047,imu_link,-0.0400813265445,-0.0366063604379,0.703776426153,0.708344692667,"(0.02, 0.0, 0.0, 0.0, 0.02, 0.0, 0.0, 0.0, 0.02)",0.0,0.0,0.0,"(0.0, 0.0, 0.0, 0.0, 0.0, 0.0, 0.0, 0.0, 0.0)",0.0,0.0,0.0,"(0.0, 0.0, 0.0, 0.0, 0.0, 0.0, 0.0, 0.0, 0.0)"
2018/12/16/17:22:07.855852,103829,1545002527,855601072,imu_link,-0.040139170809,-0.0366407643244,0.703727571205,0.708388175284,"(0.02, 0.0, 0.0, 0.0, 0.02, 0.0, 0.0, 0.0, 0.02)",0.0,0.0,0.0,"(0.0, 0.0, 0.0, 0.0, 0.0, 0.0, 0.0, 0.0, 0.0)",0.0,0.0,0.0,"(0.0, 0.0, 0.0, 0.0, 0.0, 0.0, 0.0, 0.0, 0.0)"
2018/12/16/17:22:07.865970,103830,1545002527,865696907,imu_link,-0.0401775860096,-0.0366338281743,0.703673627115,0.708439941504,"(0.02, 0.0, 0.0, 0.0, 0.02, 0.0, 0.0, 0.0, 0.02)",0.0,0.0,0.0,"(0.0, 0.0, 0.0, 0.0, 0.0, 0.0, 0.0, 0.0, 0.0)",0.0,0.0,0.0,"(0.0, 0.0, 0.0, 0.0, 0.0, 0.0, 0.0, 0.0, 0.0)"
2018/12/16/17:22:07.875743,103831,1545002527,875521898,imu_link,-0.0402081630533,-0.0365878432154,0.703617453131,0.708496374728,"(0.02, 0.0, 0.0, 0.0, 0.02, 0.0, 0.0, 0.0, 0.02)",0.0,0.0,0.0,"(0.0, 0.0, 0.0, 0.0, 0.0, 0.0, 0.0, 0.0, 0.0)",0.0,0.0,0.0,"(0.0, 0.0, 0.0, 0.0, 0.0, 0.0, 0.0, 0.0, 0.0)"
2018/12/16/17:22:07.885806,103832,1545002527,885584115,imu_link,-0.0402658757839,-0.0365735449803,0.703572541886,0.708538434638,"(0.02, 0.0, 0.0, 0.0, 0.02, 0.0, 0.0, 0.0, 0.02)",0.0,0.0,0.0,"(0.0, 0.0, 0.0, 0.0, 0.0, 0.0, 0.0, 0.0, 0.0)",0.0,0.0,0.0,"(0.0, 0.0, 0.0, 0.0, 0.0, 0.0, 0.0, 0.0, 0.0)"
2018/12/16/17:22:07.895755,103833,1545002527,895522117,imu_link,-0.0402990769251,-0.0366144786405,0.703543680131,0.708563091404,"(0.02, 0.0, 0.0, 0.0, 0.02, 0.0, 0.0, 0.0, 0.02)",0.0,0.0,0.0,"(0.0, 0.0, 0.0, 0.0, 0.0, 0.0, 0.0, 0.0, 0.0)",0.0,0.0,0.0,"(0.0, 0.0, 0.0, 0.0, 0.0, 0.0, 0.0, 0.0, 0.0)"
2018/12/16/17:22:07.905749,103834,1545002527,905541896,imu_link,-0.0402862958585,-0.0366190970896,0.703507005807,0.70859999215,"(0.02, 0.0, 0.0, 0.0, 0.02, 0.0, 0.0, 0.0, 0.02)",0.0,0.0,0.0,"(0.0, 0.0, 0.0, 0.0, 0.0, 0.0, 0.0, 0.0, 0.0)",0.0,0.0,0.0,"(0.0, 0.0, 0.0, 0.0, 0.0, 0.0, 0.0, 0.0, 0.0)"
2018/12/16/17:22:07.916489,103835,1545002527,916229009,imu_link,-0.0403010790572,-0.0365684625359,0.703440128122,0.708668156984,"(0.02, 0.0, 0.0, 0.0, 0.02, 0.0, 0.0, 0.0, 0.02)",0.0,0.0,0.0,"(0.0, 0.0, 0.0, 0.0, 0.0, 0.0, 0.0, 0.0, 0.0)",0.0,0.0,0.0,"(0.0, 0.0, 0.0, 0.0, 0.0, 0.0, 0.0, 0.0, 0.0)"
2018/12/16/17:22:07.925773,103836,1545002527,925523996,imu_link,-0.0403371538188,-0.0365018860417,0.703386231616,0.708723031592,"(0.02, 0.0, 0.0, 0.0, 0.02, 0.0, 0.0, 0.0, 0.02)",0.0,0.0,0.0,"(0.0, 0.0, 0.0, 0.0, 0.0, 0.0, 0.0, 0.0, 0.0)",0.0,0.0,0.0,"(0.0, 0.0, 0.0, 0.0, 0.0, 0.0, 0.0, 0.0, 0.0)"
2018/12/16/17:22:07.935809,103837,1545002527,935576915,imu_link,-0.0403528776412,-0.0364717753171,0.703329534444,0.708779952348,"(0.02, 0.0, 0.0, 0.0, 0.02, 0.0, 0.0, 0.0, 0.02)",0.0,0.0,0.0,"(0.0, 0.0, 0.0, 0.0, 0.0, 0.0, 0.0, 0.0, 0.0)",0.0,0.0,0.0,"(0.0, 0.0, 0.0, 0.0, 0.0, 0.0, 0.0, 0.0, 0.0)"
2018/12/16/17:22:07.945729,103838,1545002527,945521116,imu_link,-0.040347912835,-0.0364573445133,0.703281058675,0.708829077049,"(0.02, 0.0, 0.0, 0.0, 0.02, 0.0, 0.0, 0.0, 0.02)",0.0,0.0,0.0,"(0.0, 0.0, 0.0, 0.0, 0.0, 0.0, 0.0, 0.0, 0.0)",0.0,0.0,0.0,"(0.0, 0.0, 0.0, 0.0, 0.0, 0.0, 0.0, 0.0, 0.0)"
2018/12/16/17:22:07.955720,103839,1545002527,955509901,imu_link,-0.0403726665684,-0.0364187871648,0.703222280353,0.708887963046,"(0.02, 0.0, 0.0, 0.0, 0.02, 0.0, 0.0, 0.0, 0.02)",0.0,0.0,0.0,"(0.0, 0.0, 0.0, 0.0, 0.0, 0.0, 0.0, 0.0, 0.0)",0.0,0.0,0.0,"(0.0, 0.0, 0.0, 0.0, 0.0, 0.0, 0.0, 0.0, 0.0)"
2018/12/16/17:22:07.965992,103840,1545002527,965688943,imu_link,-0.0404091470003,-0.0363950874994,0.703156524613,0.708952325858,"(0.02, 0.0, 0.0, 0.0, 0.02, 0.0, 0.0, 0.0, 0.02)",0.0,0.0,0.0,"(0.0, 0.0, 0.0, 0.0, 0.0, 0.0, 0.0, 0.0, 0.0)",0.0,0.0,0.0,"(0.0, 0.0, 0.0, 0.0, 0.0, 0.0, 0.0, 0.0, 0.0)"
2018/12/16/17:22:07.975813,103841,1545002527,975553989,imu_link,-0.040381941412,-0.036371899851,0.703105505666,0.70900566402,"(0.02, 0.0, 0.0, 0.0, 0.02, 0.0, 0.0, 0.0, 0.02)",0.0,0.0,0.0,"(0.0, 0.0, 0.0, 0.0, 0.0, 0.0, 0.0, 0.0, 0.0)",0.0,0.0,0.0,"(0.0, 0.0, 0.0, 0.0, 0.0, 0.0, 0.0, 0.0, 0.0)"
2018/12/16/17:22:07.985890,103842,1545002527,985678911,imu_link,-0.0403818886018,-0.0363543957498,0.703051300729,0.709060314448,"(0.02, 0.0, 0.0, 0.0, 0.02, 0.0, 0.0, 0.0, 0.02)",0.0,0.0,0.0,"(0.0, 0.0, 0.0, 0.0, 0.0, 0.0, 0.0, 0.0, 0.0)",0.0,0.0,0.0,"(0.0, 0.0, 0.0, 0.0, 0.0, 0.0, 0.0, 0.0, 0.0)"
2018/12/16/17:22:07.995728,103843,1545002527,995506048,imu_link,-0.0404334383288,-0.0363056201502,0.702995867847,0.709114834706,"(0.02, 0.0, 0.0, 0.0, 0.02, 0.0, 0.0, 0.0, 0.02)",0.0,0.0,0.0,"(0.0, 0.0, 0.0, 0.0, 0.0, 0.0, 0.0, 0.0, 0.0)",0.0,0.0,0.0,"(0.0, 0.0, 0.0, 0.0, 0.0, 0.0, 0.0, 0.0, 0.0)"
2018/12/16/17:22:08.005816,103844,1545002528,5582094,imu_link,-0.040497614294,-0.0362905193496,0.702932532992,0.709174728472,"(0.02, 0.0, 0.0, 0.0, 0.02, 0.0, 0.0, 0.0, 0.02)",0.0,0.0,0.0,"(0.0, 0.0, 0.0, 0.0, 0.0, 0.0, 0.0, 0.0, 0.0)",0.0,0.0,0.0,"(0.0, 0.0, 0.0, 0.0, 0.0, 0.0, 0.0, 0.0, 0.0)"
2018/12/16/17:22:08.015895,103845,1545002528,15672922,imu_link,-0.040480546408,-0.0362932340349,0.702876084397,0.70923151122,"(0.02, 0.0, 0.0, 0.0, 0.02, 0.0, 0.0, 0.0, 0.02)",0.0,0.0,0.0,"(0.0, 0.0, 0.0, 0.0, 0.0, 0.0, 0.0, 0.0, 0.0)",0.0,0.0,0.0,"(0.0, 0.0, 0.0, 0.0, 0.0, 0.0, 0.0, 0.0, 0.0)"
2018/12/16/17:22:08.026052,103846,1545002528,25799989,imu_link,-0.0404851023079,-0.0362852209559,0.702813081613,0.709294093832,"(0.02, 0.0, 0.0, 0.0, 0.02, 0.0, 0.0, 0.0, 0.02)",0.0,0.0,0.0,"(0.0, 0.0, 0.0, 0.0, 0.0, 0.0, 0.0, 0.0, 0.0)",0.0,0.0,0.0,"(0.0, 0.0, 0.0, 0.0, 0.0, 0.0, 0.0, 0.0, 0.0)"
2018/12/16/17:22:08.036153,103847,1545002528,35937070,imu_link,-0.0405025407617,-0.0362374125053,0.7027509436,0.709357107102,"(0.02, 0.0, 0.0, 0.0, 0.02, 0.0, 0.0, 0.0, 0.02)",0.0,0.0,0.0,"(0.0, 0.0, 0.0, 0.0, 0.0, 0.0, 0.0, 0.0, 0.0)",0.0,0.0,0.0,"(0.0, 0.0, 0.0, 0.0, 0.0, 0.0, 0.0, 0.0, 0.0)"
2018/12/16/17:22:08.046008,103848,1545002528,45751094,imu_link,-0.0404986140991,-0.0362004937956,0.702692972371,0.709416642803,"(0.02, 0.0, 0.0, 0.0, 0.02, 0.0, 0.0, 0.0, 0.02)",0.0,0.0,0.0,"(0.0, 0.0, 0.0, 0.0, 0.0, 0.0, 0.0, 0.0, 0.0)",0.0,0.0,0.0,"(0.0, 0.0, 0.0, 0.0, 0.0, 0.0, 0.0, 0.0, 0.0)"
2018/12/16/17:22:08.055897,103849,1545002528,55648088,imu_link,-0.0404874875701,-0.0361850926943,0.702637391691,0.709473113102,"(0.02, 0.0, 0.0, 0.0, 0.02, 0.0, 0.0, 0.0, 0.02)",0.0,0.0,0.0,"(0.0, 0.0, 0.0, 0.0, 0.0, 0.0, 0.0, 0.0, 0.0)",0.0,0.0,0.0,"(0.0, 0.0, 0.0, 0.0, 0.0, 0.0, 0.0, 0.0, 0.0)"
2018/12/16/17:22:08.066056,103850,1545002528,65828084,imu_link,-0.040476315579,-0.0361522666843,0.702579955733,0.709532301797,"(0.02, 0.0, 0.0, 0.0, 0.02, 0.0, 0.0, 0.0, 0.02)",0.0,0.0,0.0,"(0.0, 0.0, 0.0, 0.0, 0.0, 0.0, 0.0, 0.0, 0.0)",0.0,0.0,0.0,"(0.0, 0.0, 0.0, 0.0, 0.0, 0.0, 0.0, 0.0, 0.0)"
2018/12/16/17:22:08.075852,103851,1545002528,75613021,imu_link,-0.0404724348758,-0.0361018222042,0.702514559415,0.709599840937,"(0.02, 0.0, 0.0, 0.0, 0.02, 0.0, 0.0, 0.0, 0.02)",0.0,0.0,0.0,"(0.0, 0.0, 0.0, 0.0, 0.0, 0.0, 0.0, 0.0, 0.0)",0.0,0.0,0.0,"(0.0, 0.0, 0.0, 0.0, 0.0, 0.0, 0.0, 0.0, 0.0)"
2018/12/16/17:22:08.086076,103852,1545002528,85777044,imu_link,-0.0404473114469,-0.0360527022261,0.702454344908,0.709663378637,"(0.02, 0.0, 0.0, 0.0, 0.02, 0.0, 0.0, 0.0, 0.02)",0.0,0.0,0.0,"(0.0, 0.0, 0.0, 0.0, 0.0, 0.0, 0.0, 0.0, 0.0)",0.0,0.0,0.0,"(0.0, 0.0, 0.0, 0.0, 0.0, 0.0, 0.0, 0.0, 0.0)"
2018/12/16/17:22:08.095798,103853,1545002528,95568895,imu_link,-0.0404101504246,-0.0360232201767,0.702400933583,0.709719857304,"(0.02, 0.0, 0.0, 0.0, 0.02, 0.0, 0.0, 0.0, 0.02)",0.0,0.0,0.0,"(0.0, 0.0, 0.0, 0.0, 0.0, 0.0, 0.0, 0.0, 0.0)",0.0,0.0,0.0,"(0.0, 0.0, 0.0, 0.0, 0.0, 0.0, 0.0, 0.0, 0.0)"
2018/12/16/17:22:08.106719,103854,1545002528,106445074,imu_link,-0.0403920251182,-0.0359749449354,0.702339950079,0.709783686884,"(0.02, 0.0, 0.0, 0.0, 0.02, 0.0, 0.0, 0.0, 0.02)",0.0,0.0,0.0,"(0.0, 0.0, 0.0, 0.0, 0.0, 0.0, 0.0, 0.0, 0.0)",0.0,0.0,0.0,"(0.0, 0.0, 0.0, 0.0, 0.0, 0.0, 0.0, 0.0, 0.0)"
2018/12/16/17:22:08.116503,103855,1545002528,116295099,imu_link,-0.0403954791509,-0.0359198097203,0.702287746822,0.709837934459,"(0.02, 0.0, 0.0, 0.0, 0.02, 0.0, 0.0, 0.0, 0.02)",0.0,0.0,0.0,"(0.0, 0.0, 0.0, 0.0, 0.0, 0.0, 0.0, 0.0, 0.0)",0.0,0.0,0.0,"(0.0, 0.0, 0.0, 0.0, 0.0, 0.0, 0.0, 0.0, 0.0)"
2018/12/16/17:22:08.125916,103856,1545002528,125652074,imu_link,-0.0403972040487,-0.0358989029557,0.702219327746,0.709906578651,"(0.02, 0.0, 0.0, 0.0, 0.02, 0.0, 0.0, 0.0, 0.02)",0.0,0.0,0.0,"(0.0, 0.0, 0.0, 0.0, 0.0, 0.0, 0.0, 0.0, 0.0)",0.0,0.0,0.0,"(0.0, 0.0, 0.0, 0.0, 0.0, 0.0, 0.0, 0.0, 0.0)"
2018/12/16/17:22:08.136167,103857,1545002528,135951995,imu_link,-0.0403785211024,-0.0358705640992,0.702175031393,0.709952887841,"(0.02, 0.0, 0.0, 0.0, 0.02, 0.0, 0.0, 0.0, 0.02)",0.0,0.0,0.0,"(0.0, 0.0, 0.0, 0.0, 0.0, 0.0, 0.0, 0.0, 0.0)",0.0,0.0,0.0,"(0.0, 0.0, 0.0, 0.0, 0.0, 0.0, 0.0, 0.0, 0.0)"
2018/12/16/17:22:08.145913,103858,1545002528,145658969,imu_link,-0.0404328146219,-0.0357990873202,0.70215616552,0.709972064289,"(0.02, 0.0, 0.0, 0.0, 0.02, 0.0, 0.0, 0.0, 0.02)",0.0,0.0,0.0,"(0.0, 0.0, 0.0, 0.0, 0.0, 0.0, 0.0, 0.0, 0.0)",0.0,0.0,0.0,"(0.0, 0.0, 0.0, 0.0, 0.0, 0.0, 0.0, 0.0, 0.0)"
2018/12/16/17:22:08.156161,103859,1545002528,155937910,imu_link,-0.0404535509982,-0.0357556665028,0.702093999234,0.710034547585,"(0.02, 0.0, 0.0, 0.0, 0.02, 0.0, 0.0, 0.0, 0.02)",0.0,0.0,0.0,"(0.0, 0.0, 0.0, 0.0, 0.0, 0.0, 0.0, 0.0, 0.0)",0.0,0.0,0.0,"(0.0, 0.0, 0.0, 0.0, 0.0, 0.0, 0.0, 0.0, 0.0)"
2018/12/16/17:22:08.166081,103860,1545002528,165798902,imu_link,-0.0404586734675,-0.0357673359425,0.702033048105,0.710093932371,"(0.02, 0.0, 0.0, 0.0, 0.02, 0.0, 0.0, 0.0, 0.02)",0.0,0.0,0.0,"(0.0, 0.0, 0.0, 0.0, 0.0, 0.0, 0.0, 0.0, 0.0)",0.0,0.0,0.0,"(0.0, 0.0, 0.0, 0.0, 0.0, 0.0, 0.0, 0.0, 0.0)"
2018/12/16/17:22:08.175893,103861,1545002528,175637960,imu_link,-0.0404958684867,-0.0357541910328,0.701965628693,0.710159122024,"(0.02, 0.0, 0.0, 0.0, 0.02, 0.0, 0.0, 0.0, 0.02)",0.0,0.0,0.0,"(0.0, 0.0, 0.0, 0.0, 0.0, 0.0, 0.0, 0.0, 0.0)",0.0,0.0,0.0,"(0.0, 0.0, 0.0, 0.0, 0.0, 0.0, 0.0, 0.0, 0.0)"
2018/12/16/17:22:08.185923,103862,1545002528,185745000,imu_link,-0.0405432001389,-0.0357087586877,0.701899847733,0.710223723363,"(0.02, 0.0, 0.0, 0.0, 0.02, 0.0, 0.0, 0.0, 0.02)",0.0,0.0,0.0,"(0.0, 0.0, 0.0, 0.0, 0.0, 0.0, 0.0, 0.0, 0.0)",0.0,0.0,0.0,"(0.0, 0.0, 0.0, 0.0, 0.0, 0.0, 0.0, 0.0, 0.0)"
2018/12/16/17:22:08.195731,103863,1545002528,195544958,imu_link,-0.0405671621679,-0.0356974758908,0.701827055096,0.710294854483,"(0.02, 0.0, 0.0, 0.0, 0.02, 0.0, 0.0, 0.0, 0.02)",0.0,0.0,0.0,"(0.0, 0.0, 0.0, 0.0, 0.0, 0.0, 0.0, 0.0, 0.0)",0.0,0.0,0.0,"(0.0, 0.0, 0.0, 0.0, 0.0, 0.0, 0.0, 0.0, 0.0)"
2018/12/16/17:22:08.205781,103864,1545002528,205574989,imu_link,-0.0405813754837,-0.0356811483726,0.701771112689,0.710350134095,"(0.02, 0.0, 0.0, 0.0, 0.02, 0.0, 0.0, 0.0, 0.02)",0.0,0.0,0.0,"(0.0, 0.0, 0.0, 0.0, 0.0, 0.0, 0.0, 0.0, 0.0)",0.0,0.0,0.0,"(0.0, 0.0, 0.0, 0.0, 0.0, 0.0, 0.0, 0.0, 0.0)"
2018/12/16/17:22:08.216112,103865,1545002528,215835094,imu_link,-0.0406295840421,-0.0356310470714,0.701705119963,0.710415082894,"(0.02, 0.0, 0.0, 0.0, 0.02, 0.0, 0.0, 0.0, 0.02)",0.0,0.0,0.0,"(0.0, 0.0, 0.0, 0.0, 0.0, 0.0, 0.0, 0.0, 0.0)",0.0,0.0,0.0,"(0.0, 0.0, 0.0, 0.0, 0.0, 0.0, 0.0, 0.0, 0.0)"
2018/12/16/17:22:08.225842,103866,1545002528,225626945,imu_link,-0.0406441896868,-0.0356323298033,0.701635035935,0.710483401119,"(0.02, 0.0, 0.0, 0.0, 0.02, 0.0, 0.0, 0.0, 0.02)",0.0,0.0,0.0,"(0.0, 0.0, 0.0, 0.0, 0.0, 0.0, 0.0, 0.0, 0.0)",0.0,0.0,0.0,"(0.0, 0.0, 0.0, 0.0, 0.0, 0.0, 0.0, 0.0, 0.0)"
2018/12/16/17:22:08.235853,103867,1545002528,235661029,imu_link,-0.0406805134589,-0.0356153607962,0.701567581619,0.7105487811,"(0.02, 0.0, 0.0, 0.0, 0.02, 0.0, 0.0, 0.0, 0.02)",0.0,0.0,0.0,"(0.0, 0.0, 0.0, 0.0, 0.0, 0.0, 0.0, 0.0, 0.0)",0.0,0.0,0.0,"(0.0, 0.0, 0.0, 0.0, 0.0, 0.0, 0.0, 0.0, 0.0)"
2018/12/16/17:22:08.246311,103868,1545002528,246067047,imu_link,-0.0406702921205,-0.0355874808851,0.701506034524,0.710611526834,"(0.02, 0.0, 0.0, 0.0, 0.02, 0.0, 0.0, 0.0, 0.02)",0.0,0.0,0.0,"(0.0, 0.0, 0.0, 0.0, 0.0, 0.0, 0.0, 0.0, 0.0)",0.0,0.0,0.0,"(0.0, 0.0, 0.0, 0.0, 0.0, 0.0, 0.0, 0.0, 0.0)"
2018/12/16/17:22:08.256034,103869,1545002528,255821943,imu_link,-0.0406801896101,-0.0355373163766,0.701443429459,0.710675268029,"(0.02, 0.0, 0.0, 0.0, 0.02, 0.0, 0.0, 0.0, 0.02)",0.0,0.0,0.0,"(0.0, 0.0, 0.0, 0.0, 0.0, 0.0, 0.0, 0.0, 0.0)",0.0,0.0,0.0,"(0.0, 0.0, 0.0, 0.0, 0.0, 0.0, 0.0, 0.0, 0.0)"
2018/12/16/17:22:08.266173,103870,1545002528,265779972,imu_link,-0.040687424916,-0.0354994186803,0.701368946468,0.710750255475,"(0.02, 0.0, 0.0, 0.0, 0.02, 0.0, 0.0, 0.0, 0.02)",0.0,0.0,0.0,"(0.0, 0.0, 0.0, 0.0, 0.0, 0.0, 0.0, 0.0, 0.0)",0.0,0.0,0.0,"(0.0, 0.0, 0.0, 0.0, 0.0, 0.0, 0.0, 0.0, 0.0)"
2018/12/16/17:22:08.275717,103871,1545002528,275571107,imu_link,-0.0406902935105,-0.0354778705812,0.701308529266,0.710810781778,"(0.02, 0.0, 0.0, 0.0, 0.02, 0.0, 0.0, 0.0, 0.02)",0.0,0.0,0.0,"(0.0, 0.0, 0.0, 0.0, 0.0, 0.0, 0.0, 0.0, 0.0)",0.0,0.0,0.0,"(0.0, 0.0, 0.0, 0.0, 0.0, 0.0, 0.0, 0.0, 0.0)"
2018/12/16/17:22:08.285884,103872,1545002528,285644054,imu_link,-0.0407052906322,-0.0354668125804,0.701249094885,0.710869109923,"(0.02, 0.0, 0.0, 0.0, 0.02, 0.0, 0.0, 0.0, 0.02)",0.0,0.0,0.0,"(0.0, 0.0, 0.0, 0.0, 0.0, 0.0, 0.0, 0.0, 0.0)",0.0,0.0,0.0,"(0.0, 0.0, 0.0, 0.0, 0.0, 0.0, 0.0, 0.0, 0.0)"
2018/12/16/17:22:08.295782,103873,1545002528,295583963,imu_link,-0.0407204877435,-0.0354477205439,0.701187118894,0.710930323789,"(0.02, 0.0, 0.0, 0.0, 0.02, 0.0, 0.0, 0.0, 0.02)",0.0,0.0,0.0,"(0.0, 0.0, 0.0, 0.0, 0.0, 0.0, 0.0, 0.0, 0.0)",0.0,0.0,0.0,"(0.0, 0.0, 0.0, 0.0, 0.0, 0.0, 0.0, 0.0, 0.0)"
2018/12/16/17:22:08.305953,103874,1545002528,305704116,imu_link,-0.0407263297289,-0.0354422339142,0.701128436202,0.710988136379,"(0.02, 0.0, 0.0, 0.0, 0.02, 0.0, 0.0, 0.0, 0.02)",0.0,0.0,0.0,"(0.0, 0.0, 0.0, 0.0, 0.0, 0.0, 0.0, 0.0, 0.0)",0.0,0.0,0.0,"(0.0, 0.0, 0.0, 0.0, 0.0, 0.0, 0.0, 0.0, 0.0)"
2018/12/16/17:22:08.315840,103875,1545002528,315663099,imu_link,-0.0407244042524,-0.0354383853888,0.701074365754,0.711041755048,"(0.02, 0.0, 0.0, 0.0, 0.02, 0.0, 0.0, 0.0, 0.02)",0.0,0.0,0.0,"(0.0, 0.0, 0.0, 0.0, 0.0, 0.0, 0.0, 0.0, 0.0)",0.0,0.0,0.0,"(0.0, 0.0, 0.0, 0.0, 0.0, 0.0, 0.0, 0.0, 0.0)"
2018/12/16/17:22:08.325905,103876,1545002528,325709104,imu_link,-0.0407353655422,-0.0354300866024,0.701008789037,0.711106192246,"(0.02, 0.0, 0.0, 0.0, 0.02, 0.0, 0.0, 0.0, 0.02)",0.0,0.0,0.0,"(0.0, 0.0, 0.0, 0.0, 0.0, 0.0, 0.0, 0.0, 0.0)",0.0,0.0,0.0,"(0.0, 0.0, 0.0, 0.0, 0.0, 0.0, 0.0, 0.0, 0.0)"
2018/12/16/17:22:08.335757,103877,1545002528,335573911,imu_link,-0.040762585455,-0.0354548080232,0.700952790202,0.711158599838,"(0.02, 0.0, 0.0, 0.0, 0.02, 0.0, 0.0, 0.0, 0.02)",0.0,0.0,0.0,"(0.0, 0.0, 0.0, 0.0, 0.0, 0.0, 0.0, 0.0, 0.0)",0.0,0.0,0.0,"(0.0, 0.0, 0.0, 0.0, 0.0, 0.0, 0.0, 0.0, 0.0)"
2018/12/16/17:22:08.345956,103878,1545002528,345769882,imu_link,-0.0407689323181,-0.0354891202898,0.700893022263,0.71121542998,"(0.02, 0.0, 0.0, 0.0, 0.02, 0.0, 0.0, 0.0, 0.02)",0.0,0.0,0.0,"(0.0, 0.0, 0.0, 0.0, 0.0, 0.0, 0.0, 0.0, 0.0)",0.0,0.0,0.0,"(0.0, 0.0, 0.0, 0.0, 0.0, 0.0, 0.0, 0.0, 0.0)"
2018/12/16/17:22:08.355973,103879,1545002528,355725049,imu_link,-0.0407660778785,-0.0355287954038,0.700842663732,0.711263236983,"(0.02, 0.0, 0.0, 0.0, 0.02, 0.0, 0.0, 0.0, 0.02)",0.0,0.0,0.0,"(0.0, 0.0, 0.0, 0.0, 0.0, 0.0, 0.0, 0.0, 0.0)",0.0,0.0,0.0,"(0.0, 0.0, 0.0, 0.0, 0.0, 0.0, 0.0, 0.0, 0.0)"
2018/12/16/17:22:08.366136,103880,1545002528,365874052,imu_link,-0.0407997349559,-0.035524586526,0.700792867071,0.71131058114,"(0.02, 0.0, 0.0, 0.0, 0.02, 0.0, 0.0, 0.0, 0.02)",0.0,0.0,0.0,"(0.0, 0.0, 0.0, 0.0, 0.0, 0.0, 0.0, 0.0, 0.0)",0.0,0.0,0.0,"(0.0, 0.0, 0.0, 0.0, 0.0, 0.0, 0.0, 0.0, 0.0)"
2018/12/16/17:22:08.375995,103881,1545002528,375768899,imu_link,-0.0408138778242,-0.0355392343344,0.700739876425,0.711361241416,"(0.02, 0.0, 0.0, 0.0, 0.02, 0.0, 0.0, 0.0, 0.02)",0.0,0.0,0.0,"(0.0, 0.0, 0.0, 0.0, 0.0, 0.0, 0.0, 0.0, 0.0)",0.0,0.0,0.0,"(0.0, 0.0, 0.0, 0.0, 0.0, 0.0, 0.0, 0.0, 0.0)"
2018/12/16/17:22:08.385990,103882,1545002528,385742902,imu_link,-0.0408292470964,-0.0355917228304,0.700681823309,0.711414917142,"(0.02, 0.0, 0.0, 0.0, 0.02, 0.0, 0.0, 0.0, 0.02)",0.0,0.0,0.0,"(0.0, 0.0, 0.0, 0.0, 0.0, 0.0, 0.0, 0.0, 0.0)",0.0,0.0,0.0,"(0.0, 0.0, 0.0, 0.0, 0.0, 0.0, 0.0, 0.0, 0.0)"
2018/12/16/17:22:08.395708,103883,1545002528,395550012,imu_link,-0.0408841349744,-0.0356037498964,0.700622117453,0.711469963551,"(0.02, 0.0, 0.0, 0.0, 0.02, 0.0, 0.0, 0.0, 0.02)",0.0,0.0,0.0,"(0.0, 0.0, 0.0, 0.0, 0.0, 0.0, 0.0, 0.0, 0.0)",0.0,0.0,0.0,"(0.0, 0.0, 0.0, 0.0, 0.0, 0.0, 0.0, 0.0, 0.0)"
2018/12/16/17:22:08.405940,103884,1545002528,405735015,imu_link,-0.0408871820379,-0.035620935375,0.70055601221,0.711534019612,"(0.02, 0.0, 0.0, 0.0, 0.02, 0.0, 0.0, 0.0, 0.02)",0.0,0.0,0.0,"(0.0, 0.0, 0.0, 0.0, 0.0, 0.0, 0.0, 0.0, 0.0)",0.0,0.0,0.0,"(0.0, 0.0, 0.0, 0.0, 0.0, 0.0, 0.0, 0.0, 0.0)"
2018/12/16/17:22:08.415967,103885,1545002528,415725946,imu_link,-0.0409048901955,-0.0356265179961,0.700494673509,0.71159310955,"(0.02, 0.0, 0.0, 0.0, 0.02, 0.0, 0.0, 0.0, 0.02)",0.0,0.0,0.0,"(0.0, 0.0, 0.0, 0.0, 0.0, 0.0, 0.0, 0.0, 0.0)",0.0,0.0,0.0,"(0.0, 0.0, 0.0, 0.0, 0.0, 0.0, 0.0, 0.0, 0.0)"
2018/12/16/17:22:08.426021,103886,1545002528,425765037,imu_link,-0.0409338617563,-0.0356908419372,0.700435943608,0.711646029754,"(0.02, 0.0, 0.0, 0.0, 0.02, 0.0, 0.0, 0.0, 0.02)",0.0,0.0,0.0,"(0.0, 0.0, 0.0, 0.0, 0.0, 0.0, 0.0, 0.0, 0.0)",0.0,0.0,0.0,"(0.0, 0.0, 0.0, 0.0, 0.0, 0.0, 0.0, 0.0, 0.0)"
2018/12/16/17:22:08.435879,103887,1545002528,435661077,imu_link,-0.0409458344589,-0.0357271474277,0.700370316734,0.711708106611,"(0.02, 0.0, 0.0, 0.0, 0.02, 0.0, 0.0, 0.0, 0.02)",0.0,0.0,0.0,"(0.0, 0.0, 0.0, 0.0, 0.0, 0.0, 0.0, 0.0, 0.0)",0.0,0.0,0.0,"(0.0, 0.0, 0.0, 0.0, 0.0, 0.0, 0.0, 0.0, 0.0)"
2018/12/16/17:22:08.446032,103888,1545002528,445717096,imu_link,-0.0409405863719,-0.0357463359262,0.700295955113,0.711780614451,"(0.02, 0.0, 0.0, 0.0, 0.02, 0.0, 0.0, 0.0, 0.02)",0.0,0.0,0.0,"(0.0, 0.0, 0.0, 0.0, 0.0, 0.0, 0.0, 0.0, 0.0)",0.0,0.0,0.0,"(0.0, 0.0, 0.0, 0.0, 0.0, 0.0, 0.0, 0.0, 0.0)"
2018/12/16/17:22:08.455943,103889,1545002528,455710887,imu_link,-0.0409627310569,-0.0357213832006,0.700237009198,0.711838583104,"(0.02, 0.0, 0.0, 0.0, 0.02, 0.0, 0.0, 0.0, 0.02)",0.0,0.0,0.0,"(0.0, 0.0, 0.0, 0.0, 0.0, 0.0, 0.0, 0.0, 0.0)",0.0,0.0,0.0,"(0.0, 0.0, 0.0, 0.0, 0.0, 0.0, 0.0, 0.0, 0.0)"
2018/12/16/17:22:08.466514,103890,1545002528,466290950,imu_link,-0.0409520559976,-0.0357501617753,0.700157199604,0.711916252719,"(0.02, 0.0, 0.0, 0.0, 0.02, 0.0, 0.0, 0.0, 0.02)",0.0,0.0,0.0,"(0.0, 0.0, 0.0, 0.0, 0.0, 0.0, 0.0, 0.0, 0.0)",0.0,0.0,0.0,"(0.0, 0.0, 0.0, 0.0, 0.0, 0.0, 0.0, 0.0, 0.0)"
2018/12/16/17:22:08.475868,103891,1545002528,475619077,imu_link,-0.0409088099529,-0.0357744018749,0.700099622671,0.71197414263,"(0.02, 0.0, 0.0, 0.0, 0.02, 0.0, 0.0, 0.0, 0.02)",0.0,0.0,0.0,"(0.0, 0.0, 0.0, 0.0, 0.0, 0.0, 0.0, 0.0, 0.0)",0.0,0.0,0.0,"(0.0, 0.0, 0.0, 0.0, 0.0, 0.0, 0.0, 0.0, 0.0)"
2018/12/16/17:22:08.485914,103892,1545002528,485650062,imu_link,-0.0408991675945,-0.0357397718337,0.700041725235,0.712033362792,"(0.02, 0.0, 0.0, 0.0, 0.02, 0.0, 0.0, 0.0, 0.02)",0.0,0.0,0.0,"(0.0, 0.0, 0.0, 0.0, 0.0, 0.0, 0.0, 0.0, 0.0)",0.0,0.0,0.0,"(0.0, 0.0, 0.0, 0.0, 0.0, 0.0, 0.0, 0.0, 0.0)"
2018/12/16/17:22:08.495762,103893,1545002528,495563983,imu_link,-0.040912012835,-0.0357094552702,0.699976232248,0.712098529909,"(0.02, 0.0, 0.0, 0.0, 0.02, 0.0, 0.0, 0.0, 0.02)",0.0,0.0,0.0,"(0.0, 0.0, 0.0, 0.0, 0.0, 0.0, 0.0, 0.0, 0.0)",0.0,0.0,0.0,"(0.0, 0.0, 0.0, 0.0, 0.0, 0.0, 0.0, 0.0, 0.0)"
2018/12/16/17:22:08.505989,103894,1545002528,505719900,imu_link,-0.0408774262529,-0.0357234276298,0.699904282919,0.712170532593,"(0.02, 0.0, 0.0, 0.0, 0.02, 0.0, 0.0, 0.0, 0.02)",0.0,0.0,0.0,"(0.0, 0.0, 0.0, 0.0, 0.0, 0.0, 0.0, 0.0, 0.0)",0.0,0.0,0.0,"(0.0, 0.0, 0.0, 0.0, 0.0, 0.0, 0.0, 0.0, 0.0)"
2018/12/16/17:22:08.515862,103895,1545002528,515608072,imu_link,-0.0408218117399,-0.0357505038149,0.69985063098,0.712225087652,"(0.02, 0.0, 0.0, 0.0, 0.02, 0.0, 0.0, 0.0, 0.02)",0.0,0.0,0.0,"(0.0, 0.0, 0.0, 0.0, 0.0, 0.0, 0.0, 0.0, 0.0)",0.0,0.0,0.0,"(0.0, 0.0, 0.0, 0.0, 0.0, 0.0, 0.0, 0.0, 0.0)"
2018/12/16/17:22:08.525928,103896,1545002528,525624990,imu_link,-0.0407999563423,-0.0357533282634,0.699782140652,0.712293491972,"(0.02, 0.0, 0.0, 0.0, 0.02, 0.0, 0.0, 0.0, 0.02)",0.0,0.0,0.0,"(0.0, 0.0, 0.0, 0.0, 0.0, 0.0, 0.0, 0.0, 0.0)",0.0,0.0,0.0,"(0.0, 0.0, 0.0, 0.0, 0.0, 0.0, 0.0, 0.0, 0.0)"
2018/12/16/17:22:08.535853,103897,1545002528,535624027,imu_link,-0.0408133595959,-0.03575223928,0.699723597246,0.712350289199,"(0.02, 0.0, 0.0, 0.0, 0.02, 0.0, 0.0, 0.0, 0.02)",0.0,0.0,0.0,"(0.0, 0.0, 0.0, 0.0, 0.0, 0.0, 0.0, 0.0, 0.0)",0.0,0.0,0.0,"(0.0, 0.0, 0.0, 0.0, 0.0, 0.0, 0.0, 0.0, 0.0)"
2018/12/16/17:22:08.545983,103898,1545002528,545634031,imu_link,-0.0408224739623,-0.0357777515052,0.69966083333,0.712410132171,"(0.02, 0.0, 0.0, 0.0, 0.02, 0.0, 0.0, 0.0, 0.02)",0.0,0.0,0.0,"(0.0, 0.0, 0.0, 0.0, 0.0, 0.0, 0.0, 0.0, 0.0)",0.0,0.0,0.0,"(0.0, 0.0, 0.0, 0.0, 0.0, 0.0, 0.0, 0.0, 0.0)"
2018/12/16/17:22:08.555863,103899,1545002528,555613994,imu_link,-0.0408037042545,-0.0358389549236,0.699608886801,0.712459144469,"(0.02, 0.0, 0.0, 0.0, 0.02, 0.0, 0.0, 0.0, 0.02)",0.0,0.0,0.0,"(0.0, 0.0, 0.0, 0.0, 0.0, 0.0, 0.0, 0.0, 0.0)",0.0,0.0,0.0,"(0.0, 0.0, 0.0, 0.0, 0.0, 0.0, 0.0, 0.0, 0.0)"
2018/12/16/17:22:08.566123,103900,1545002528,565743923,imu_link,-0.040838528625,-0.0358743052131,0.699552552592,0.712510684107,"(0.02, 0.0, 0.0, 0.0, 0.02, 0.0, 0.0, 0.0, 0.02)",0.0,0.0,0.0,"(0.0, 0.0, 0.0, 0.0, 0.0, 0.0, 0.0, 0.0, 0.0)",0.0,0.0,0.0,"(0.0, 0.0, 0.0, 0.0, 0.0, 0.0, 0.0, 0.0, 0.0)"
2018/12/16/17:22:08.575800,103901,1545002528,575589895,imu_link,-0.0408609790665,-0.0358723697225,0.69949298796,0.712567970986,"(0.02, 0.0, 0.0, 0.0, 0.02, 0.0, 0.0, 0.0, 0.02)",0.0,0.0,0.0,"(0.0, 0.0, 0.0, 0.0, 0.0, 0.0, 0.0, 0.0, 0.0)",0.0,0.0,0.0,"(0.0, 0.0, 0.0, 0.0, 0.0, 0.0, 0.0, 0.0, 0.0)"
2018/12/16/17:22:08.586004,103902,1545002528,585602045,imu_link,-0.0408614582889,-0.0358641247742,0.699443829233,0.712616611881,"(0.02, 0.0, 0.0, 0.0, 0.02, 0.0, 0.0, 0.0, 0.02)",0.0,0.0,0.0,"(0.0, 0.0, 0.0, 0.0, 0.0, 0.0, 0.0, 0.0, 0.0)",0.0,0.0,0.0,"(0.0, 0.0, 0.0, 0.0, 0.0, 0.0, 0.0, 0.0, 0.0)"
2018/12/16/17:22:08.595918,103903,1545002528,595757961,imu_link,-0.0408654985953,-0.035896187329,0.699390170292,0.712667429071,"(0.02, 0.0, 0.0, 0.0, 0.02, 0.0, 0.0, 0.0, 0.02)",0.0,0.0,0.0,"(0.0, 0.0, 0.0, 0.0, 0.0, 0.0, 0.0, 0.0, 0.0)",0.0,0.0,0.0,"(0.0, 0.0, 0.0, 0.0, 0.0, 0.0, 0.0, 0.0, 0.0)"
2018/12/16/17:22:08.605857,103904,1545002528,605612993,imu_link,-0.0408669573906,-0.0358847000454,0.699337030999,0.712720069291,"(0.02, 0.0, 0.0, 0.0, 0.02, 0.0, 0.0, 0.0, 0.02)",0.0,0.0,0.0,"(0.0, 0.0, 0.0, 0.0, 0.0, 0.0, 0.0, 0.0, 0.0)",0.0,0.0,0.0,"(0.0, 0.0, 0.0, 0.0, 0.0, 0.0, 0.0, 0.0, 0.0)"
2018/12/16/17:22:08.616274,103905,1545002528,615983009,imu_link,-0.0408632947516,-0.0358352512415,0.699288739327,0.712770148759,"(0.02, 0.0, 0.0, 0.0, 0.02, 0.0, 0.0, 0.0, 0.02)",0.0,0.0,0.0,"(0.0, 0.0, 0.0, 0.0, 0.0, 0.0, 0.0, 0.0, 0.0)",0.0,0.0,0.0,"(0.0, 0.0, 0.0, 0.0, 0.0, 0.0, 0.0, 0.0, 0.0)"
2018/12/16/17:22:08.625916,103906,1545002528,625617980,imu_link,-0.0408322557223,-0.0358325723132,0.699234852275,0.712824925924,"(0.02, 0.0, 0.0, 0.0, 0.02, 0.0, 0.0, 0.0, 0.02)",0.0,0.0,0.0,"(0.0, 0.0, 0.0, 0.0, 0.0, 0.0, 0.0, 0.0, 0.0)",0.0,0.0,0.0,"(0.0, 0.0, 0.0, 0.0, 0.0, 0.0, 0.0, 0.0, 0.0)"
2018/12/16/17:22:08.635928,103907,1545002528,635690927,imu_link,-0.0408002547285,-0.0358523001682,0.699182476928,0.712877139304,"(0.02, 0.0, 0.0, 0.0, 0.02, 0.0, 0.0, 0.0, 0.02)",0.0,0.0,0.0,"(0.0, 0.0, 0.0, 0.0, 0.0, 0.0, 0.0, 0.0, 0.0)",0.0,0.0,0.0,"(0.0, 0.0, 0.0, 0.0, 0.0, 0.0, 0.0, 0.0, 0.0)"
2018/12/16/17:22:08.645960,103908,1545002528,645667076,imu_link,-0.0408381518781,-0.035821638334,0.699159489483,0.712899055859,"(0.02, 0.0, 0.0, 0.0, 0.02, 0.0, 0.0, 0.0, 0.02)",0.0,0.0,0.0,"(0.0, 0.0, 0.0, 0.0, 0.0, 0.0, 0.0, 0.0, 0.0)",0.0,0.0,0.0,"(0.0, 0.0, 0.0, 0.0, 0.0, 0.0, 0.0, 0.0, 0.0)"
2018/12/16/17:22:08.655888,103909,1545002528,655653953,imu_link,-0.040820600804,-0.0357816033903,0.699106366248,0.712954166886,"(0.02, 0.0, 0.0, 0.0, 0.02, 0.0, 0.0, 0.0, 0.02)",0.0,0.0,0.0,"(0.0, 0.0, 0.0, 0.0, 0.0, 0.0, 0.0, 0.0, 0.0)",0.0,0.0,0.0,"(0.0, 0.0, 0.0, 0.0, 0.0, 0.0, 0.0, 0.0, 0.0)"
2018/12/16/17:22:08.666195,103910,1545002528,665880918,imu_link,-0.040795068869,-0.0357958080765,0.699058741973,0.713001611325,"(0.02, 0.0, 0.0, 0.0, 0.02, 0.0, 0.0, 0.0, 0.02)",0.0,0.0,0.0,"(0.0, 0.0, 0.0, 0.0, 0.0, 0.0, 0.0, 0.0, 0.0)",0.0,0.0,0.0,"(0.0, 0.0, 0.0, 0.0, 0.0, 0.0, 0.0, 0.0, 0.0)"
2018/12/16/17:22:08.675890,103911,1545002528,675628900,imu_link,-0.0408073828555,-0.0358055383571,0.699009203439,0.713048984598,"(0.02, 0.0, 0.0, 0.0, 0.02, 0.0, 0.0, 0.0, 0.02)",0.0,0.0,0.0,"(0.0, 0.0, 0.0, 0.0, 0.0, 0.0, 0.0, 0.0, 0.0)",0.0,0.0,0.0,"(0.0, 0.0, 0.0, 0.0, 0.0, 0.0, 0.0, 0.0, 0.0)"
2018/12/16/17:22:08.685996,103912,1545002528,685714960,imu_link,-0.0408167192604,-0.0358499086194,0.698964787652,0.7130897595,"(0.02, 0.0, 0.0, 0.0, 0.02, 0.0, 0.0, 0.0, 0.02)",0.0,0.0,0.0,"(0.0, 0.0, 0.0, 0.0, 0.0, 0.0, 0.0, 0.0, 0.0)",0.0,0.0,0.0,"(0.0, 0.0, 0.0, 0.0, 0.0, 0.0, 0.0, 0.0, 0.0)"
2018/12/16/17:22:08.696037,103913,1545002528,695774078,imu_link,-0.0408064150054,-0.0358459274353,0.698929611519,0.713125026992,"(0.02, 0.0, 0.0, 0.0, 0.02, 0.0, 0.0, 0.0, 0.02)",0.0,0.0,0.0,"(0.0, 0.0, 0.0, 0.0, 0.0, 0.0, 0.0, 0.0, 0.0)",0.0,0.0,0.0,"(0.0, 0.0, 0.0, 0.0, 0.0, 0.0, 0.0, 0.0, 0.0)"
2018/12/16/17:22:08.706038,103914,1545002528,705666065,imu_link,-0.0408099435967,-0.0358428649625,0.698887386987,0.713166360568,"(0.02, 0.0, 0.0, 0.0, 0.02, 0.0, 0.0, 0.0, 0.02)",0.0,0.0,0.0,"(0.0, 0.0, 0.0, 0.0, 0.0, 0.0, 0.0, 0.0, 0.0)",0.0,0.0,0.0,"(0.0, 0.0, 0.0, 0.0, 0.0, 0.0, 0.0, 0.0, 0.0)"
2018/12/16/17:22:08.715984,103915,1545002528,715723991,imu_link,-0.0408097115275,-0.0358148373348,0.69884910816,0.713205292252,"(0.02, 0.0, 0.0, 0.0, 0.02, 0.0, 0.0, 0.0, 0.02)",0.0,0.0,0.0,"(0.0, 0.0, 0.0, 0.0, 0.0, 0.0, 0.0, 0.0, 0.0)",0.0,0.0,0.0,"(0.0, 0.0, 0.0, 0.0, 0.0, 0.0, 0.0, 0.0, 0.0)"
2018/12/16/17:22:08.726112,103916,1545002528,725924968,imu_link,-0.040799054256,-0.0358272380989,0.698804607934,0.713248880905,"(0.02, 0.0, 0.0, 0.0, 0.02, 0.0, 0.0, 0.0, 0.02)",0.0,0.0,0.0,"(0.0, 0.0, 0.0, 0.0, 0.0, 0.0, 0.0, 0.0, 0.0)",0.0,0.0,0.0,"(0.0, 0.0, 0.0, 0.0, 0.0, 0.0, 0.0, 0.0, 0.0)"
2018/12/16/17:22:08.735878,103917,1545002528,735616922,imu_link,-0.040794095952,-0.0358517135919,0.698756960534,0.713294614079,"(0.02, 0.0, 0.0, 0.0, 0.02, 0.0, 0.0, 0.0, 0.02)",0.0,0.0,0.0,"(0.0, 0.0, 0.0, 0.0, 0.0, 0.0, 0.0, 0.0, 0.0)",0.0,0.0,0.0,"(0.0, 0.0, 0.0, 0.0, 0.0, 0.0, 0.0, 0.0, 0.0)"
2018/12/16/17:22:08.745961,103918,1545002528,745731115,imu_link,-0.040772514316,-0.0358642150964,0.698718592791,0.713332803283,"(0.02, 0.0, 0.0, 0.0, 0.02, 0.0, 0.0, 0.0, 0.02)",0.0,0.0,0.0,"(0.0, 0.0, 0.0, 0.0, 0.0, 0.0, 0.0, 0.0, 0.0)",0.0,0.0,0.0,"(0.0, 0.0, 0.0, 0.0, 0.0, 0.0, 0.0, 0.0, 0.0)"
2018/12/16/17:22:08.756160,103919,1545002528,755928039,imu_link,-0.0407691843145,-0.0358512903694,0.698669335977,0.713381887599,"(0.02, 0.0, 0.0, 0.0, 0.02, 0.0, 0.0, 0.0, 0.02)",0.0,0.0,0.0,"(0.0, 0.0, 0.0, 0.0, 0.0, 0.0, 0.0, 0.0, 0.0)",0.0,0.0,0.0,"(0.0, 0.0, 0.0, 0.0, 0.0, 0.0, 0.0, 0.0, 0.0)"
2018/12/16/17:22:08.766111,103920,1545002528,765789031,imu_link,-0.0407365153275,-0.0358123996666,0.698624217664,0.71342989203,"(0.02, 0.0, 0.0, 0.0, 0.02, 0.0, 0.0, 0.0, 0.02)",0.0,0.0,0.0,"(0.0, 0.0, 0.0, 0.0, 0.0, 0.0, 0.0, 0.0, 0.0)",0.0,0.0,0.0,"(0.0, 0.0, 0.0, 0.0, 0.0, 0.0, 0.0, 0.0, 0.0)"
2018/12/16/17:22:08.775858,103921,1545002528,775638103,imu_link,-0.0407025158269,-0.035806201527,0.698579561207,0.713475870511,"(0.02, 0.0, 0.0, 0.0, 0.02, 0.0, 0.0, 0.0, 0.02)",0.0,0.0,0.0,"(0.0, 0.0, 0.0, 0.0, 0.0, 0.0, 0.0, 0.0, 0.0)",0.0,0.0,0.0,"(0.0, 0.0, 0.0, 0.0, 0.0, 0.0, 0.0, 0.0, 0.0)"
2018/12/16/17:22:08.785982,103922,1545002528,785674095,imu_link,-0.0407024367348,-0.0358057941905,0.69853594094,0.713518602394,"(0.02, 0.0, 0.0, 0.0, 0.02, 0.0, 0.0, 0.0, 0.02)",0.0,0.0,0.0,"(0.0, 0.0, 0.0, 0.0, 0.0, 0.0, 0.0, 0.0, 0.0)",0.0,0.0,0.0,"(0.0, 0.0, 0.0, 0.0, 0.0, 0.0, 0.0, 0.0, 0.0)"
2018/12/16/17:22:08.795790,103923,1545002528,795589923,imu_link,-0.0406786254038,-0.0358135862602,0.698485701498,0.713568750211,"(0.02, 0.0, 0.0, 0.0, 0.02, 0.0, 0.0, 0.0, 0.02)",0.0,0.0,0.0,"(0.0, 0.0, 0.0, 0.0, 0.0, 0.0, 0.0, 0.0, 0.0)",0.0,0.0,0.0,"(0.0, 0.0, 0.0, 0.0, 0.0, 0.0, 0.0, 0.0, 0.0)"
2018/12/16/17:22:08.805795,103924,1545002528,805612087,imu_link,-0.0406332271536,-0.0358137077273,0.698437232899,0.713618771397,"(0.02, 0.0, 0.0, 0.0, 0.02, 0.0, 0.0, 0.0, 0.02)",0.0,0.0,0.0,"(0.0, 0.0, 0.0, 0.0, 0.0, 0.0, 0.0, 0.0, 0.0)",0.0,0.0,0.0,"(0.0, 0.0, 0.0, 0.0, 0.0, 0.0, 0.0, 0.0, 0.0)"
2018/12/16/17:22:08.816204,103925,1545002528,815881967,imu_link,-0.0406027289619,-0.035810027304,0.698393103097,0.713663880193,"(0.02, 0.0, 0.0, 0.0, 0.02, 0.0, 0.0, 0.0, 0.02)",0.0,0.0,0.0,"(0.0, 0.0, 0.0, 0.0, 0.0, 0.0, 0.0, 0.0, 0.0)",0.0,0.0,0.0,"(0.0, 0.0, 0.0, 0.0, 0.0, 0.0, 0.0, 0.0, 0.0)"
2018/12/16/17:22:08.826038,103926,1545002528,825706958,imu_link,-0.0405891030513,-0.0358083140214,0.698349537848,0.71370737165,"(0.02, 0.0, 0.0, 0.0, 0.02, 0.0, 0.0, 0.0, 0.02)",0.0,0.0,0.0,"(0.0, 0.0, 0.0, 0.0, 0.0, 0.0, 0.0, 0.0, 0.0)",0.0,0.0,0.0,"(0.0, 0.0, 0.0, 0.0, 0.0, 0.0, 0.0, 0.0, 0.0)"
2018/12/16/17:22:08.835932,103927,1545002528,835668087,imu_link,-0.0405874078758,-0.0358177906054,0.698307016582,0.713748596349,"(0.02, 0.0, 0.0, 0.0, 0.02, 0.0, 0.0, 0.0, 0.02)",0.0,0.0,0.0,"(0.0, 0.0, 0.0, 0.0, 0.0, 0.0, 0.0, 0.0, 0.0)",0.0,0.0,0.0,"(0.0, 0.0, 0.0, 0.0, 0.0, 0.0, 0.0, 0.0, 0.0)"
2018/12/16/17:22:08.846177,103928,1545002528,845870018,imu_link,-0.0406189035675,-0.0358485486549,0.698259159179,0.713792079569,"(0.02, 0.0, 0.0, 0.0, 0.02, 0.0, 0.0, 0.0, 0.02)",0.0,0.0,0.0,"(0.0, 0.0, 0.0, 0.0, 0.0, 0.0, 0.0, 0.0, 0.0)",0.0,0.0,0.0,"(0.0, 0.0, 0.0, 0.0, 0.0, 0.0, 0.0, 0.0, 0.0)"
2018/12/16/17:22:08.855959,103929,1545002528,855685949,imu_link,-0.0406020156559,-0.0358747990595,0.698206854907,0.713842883888,"(0.02, 0.0, 0.0, 0.0, 0.02, 0.0, 0.0, 0.0, 0.02)",0.0,0.0,0.0,"(0.0, 0.0, 0.0, 0.0, 0.0, 0.0, 0.0, 0.0, 0.0)",0.0,0.0,0.0,"(0.0, 0.0, 0.0, 0.0, 0.0, 0.0, 0.0, 0.0, 0.0)"
2018/12/16/17:22:08.866112,103930,1545002528,865772008,imu_link,-0.0406190286148,-0.0358919990023,0.698155299909,0.713891473637,"(0.02, 0.0, 0.0, 0.0, 0.02, 0.0, 0.0, 0.0, 0.02)",0.0,0.0,0.0,"(0.0, 0.0, 0.0, 0.0, 0.0, 0.0, 0.0, 0.0, 0.0)",0.0,0.0,0.0,"(0.0, 0.0, 0.0, 0.0, 0.0, 0.0, 0.0, 0.0, 0.0)"
2018/12/16/17:22:08.875843,103931,1545002528,875607967,imu_link,-0.0406428543589,-0.0359142063036,0.698106629764,0.713936594982,"(0.02, 0.0, 0.0, 0.0, 0.02, 0.0, 0.0, 0.0, 0.02)",0.0,0.0,0.0,"(0.0, 0.0, 0.0, 0.0, 0.0, 0.0, 0.0, 0.0, 0.0)",0.0,0.0,0.0,"(0.0, 0.0, 0.0, 0.0, 0.0, 0.0, 0.0, 0.0, 0.0)"
2018/12/16/17:22:08.885840,103932,1545002528,885622024,imu_link,-0.0406431152614,-0.0359541195752,0.698071105616,0.713969306043,"(0.02, 0.0, 0.0, 0.0, 0.02, 0.0, 0.0, 0.0, 0.02)",0.0,0.0,0.0,"(0.0, 0.0, 0.0, 0.0, 0.0, 0.0, 0.0, 0.0, 0.0)",0.0,0.0,0.0,"(0.0, 0.0, 0.0, 0.0, 0.0, 0.0, 0.0, 0.0, 0.0)"
2018/12/16/17:22:08.895890,103933,1545002528,895606040,imu_link,-0.0406641767034,-0.035957660439,0.698018003036,0.714019844841,"(0.02, 0.0, 0.0, 0.0, 0.02, 0.0, 0.0, 0.0, 0.02)",0.0,0.0,0.0,"(0.0, 0.0, 0.0, 0.0, 0.0, 0.0, 0.0, 0.0, 0.0)",0.0,0.0,0.0,"(0.0, 0.0, 0.0, 0.0, 0.0, 0.0, 0.0, 0.0, 0.0)"
2018/12/16/17:22:08.905959,103934,1545002528,905774116,imu_link,-0.040660042886,-0.0359443471124,0.6979825958,0.714055362548,"(0.02, 0.0, 0.0, 0.0, 0.02, 0.0, 0.0, 0.0, 0.02)",0.0,0.0,0.0,"(0.0, 0.0, 0.0, 0.0, 0.0, 0.0, 0.0, 0.0, 0.0)",0.0,0.0,0.0,"(0.0, 0.0, 0.0, 0.0, 0.0, 0.0, 0.0, 0.0, 0.0)"
2018/12/16/17:22:08.916299,103935,1545002528,915700912,imu_link,-0.0406552949868,-0.0359020699354,0.697931751243,0.714107456179,"(0.02, 0.0, 0.0, 0.0, 0.02, 0.0, 0.0, 0.0, 0.02)",0.0,0.0,0.0,"(0.0, 0.0, 0.0, 0.0, 0.0, 0.0, 0.0, 0.0, 0.0)",0.0,0.0,0.0,"(0.0, 0.0, 0.0, 0.0, 0.0, 0.0, 0.0, 0.0, 0.0)"
2018/12/16/17:22:08.925890,103936,1545002528,925668001,imu_link,-0.0406063999755,-0.0358927849854,0.697892981202,0.714148594521,"(0.02, 0.0, 0.0, 0.0, 0.02, 0.0, 0.0, 0.0, 0.02)",0.0,0.0,0.0,"(0.0, 0.0, 0.0, 0.0, 0.0, 0.0, 0.0, 0.0, 0.0)",0.0,0.0,0.0,"(0.0, 0.0, 0.0, 0.0, 0.0, 0.0, 0.0, 0.0, 0.0)"
2018/12/16/17:22:08.936049,103937,1545002528,935636043,imu_link,-0.0405678297847,-0.0358785735047,0.697860758212,0.714182988665,"(0.02, 0.0, 0.0, 0.0, 0.02, 0.0, 0.0, 0.0, 0.02)",0.0,0.0,0.0,"(0.0, 0.0, 0.0, 0.0, 0.0, 0.0, 0.0, 0.0, 0.0)",0.0,0.0,0.0,"(0.0, 0.0, 0.0, 0.0, 0.0, 0.0, 0.0, 0.0, 0.0)"
2018/12/16/17:22:08.945957,103938,1545002528,945739984,imu_link,-0.0405144121345,-0.0358624480296,0.697828869525,0.714217989194,"(0.02, 0.0, 0.0, 0.0, 0.02, 0.0, 0.0, 0.0, 0.02)",0.0,0.0,0.0,"(0.0, 0.0, 0.0, 0.0, 0.0, 0.0, 0.0, 0.0, 0.0)",0.0,0.0,0.0,"(0.0, 0.0, 0.0, 0.0, 0.0, 0.0, 0.0, 0.0, 0.0)"
2018/12/16/17:22:08.955831,103939,1545002528,955621957,imu_link,-0.0405216459934,-0.0358322024836,0.697798185951,0.714249075011,"(0.02, 0.0, 0.0, 0.0, 0.02, 0.0, 0.0, 0.0, 0.02)",0.0,0.0,0.0,"(0.0, 0.0, 0.0, 0.0, 0.0, 0.0, 0.0, 0.0, 0.0)",0.0,0.0,0.0,"(0.0, 0.0, 0.0, 0.0, 0.0, 0.0, 0.0, 0.0, 0.0)"
2018/12/16/17:22:08.966076,103940,1545002528,965737104,imu_link,-0.0405048527252,-0.0358384692185,0.697770820268,0.714276447471,"(0.02, 0.0, 0.0, 0.0, 0.02, 0.0, 0.0, 0.0, 0.02)",0.0,0.0,0.0,"(0.0, 0.0, 0.0, 0.0, 0.0, 0.0, 0.0, 0.0, 0.0)",0.0,0.0,0.0,"(0.0, 0.0, 0.0, 0.0, 0.0, 0.0, 0.0, 0.0, 0.0)"
2018/12/16/17:22:08.975881,103941,1545002528,975650072,imu_link,-0.0404829454745,-0.0358434588658,0.69774499746,0.714302664213,"(0.02, 0.0, 0.0, 0.0, 0.02, 0.0, 0.0, 0.0, 0.02)",0.0,0.0,0.0,"(0.0, 0.0, 0.0, 0.0, 0.0, 0.0, 0.0, 0.0, 0.0)",0.0,0.0,0.0,"(0.0, 0.0, 0.0, 0.0, 0.0, 0.0, 0.0, 0.0, 0.0)"
2018/12/16/17:22:08.985839,103942,1545002528,985639095,imu_link,-0.0405156162371,-0.0358535693076,0.697712999109,0.71433155977,"(0.02, 0.0, 0.0, 0.0, 0.02, 0.0, 0.0, 0.0, 0.02)",0.0,0.0,0.0,"(0.0, 0.0, 0.0, 0.0, 0.0, 0.0, 0.0, 0.0, 0.0)",0.0,0.0,0.0,"(0.0, 0.0, 0.0, 0.0, 0.0, 0.0, 0.0, 0.0, 0.0)"
2018/12/16/17:22:08.995907,103943,1545002528,995680093,imu_link,-0.0405326794538,-0.0358989583801,0.697681328101,0.71435924513,"(0.02, 0.0, 0.0, 0.0, 0.02, 0.0, 0.0, 0.0, 0.02)",0.0,0.0,0.0,"(0.0, 0.0, 0.0, 0.0, 0.0, 0.0, 0.0, 0.0, 0.0)",0.0,0.0,0.0,"(0.0, 0.0, 0.0, 0.0, 0.0, 0.0, 0.0, 0.0, 0.0)"
2018/12/16/17:22:09.005936,103944,1545002529,5714893,imu_link,-0.0405496282096,-0.035931752799,0.697665948635,0.714371654608,"(0.02, 0.0, 0.0, 0.0, 0.02, 0.0, 0.0, 0.0, 0.02)",0.0,0.0,0.0,"(0.0, 0.0, 0.0, 0.0, 0.0, 0.0, 0.0, 0.0, 0.0)",0.0,0.0,0.0,"(0.0, 0.0, 0.0, 0.0, 0.0, 0.0, 0.0, 0.0, 0.0)"
2018/12/16/17:22:09.016197,103945,1545002529,15882015,imu_link,-0.0405657653512,-0.0359547845288,0.697645346761,0.71438969918,"(0.02, 0.0, 0.0, 0.0, 0.02, 0.0, 0.0, 0.0, 0.02)",0.0,0.0,0.0,"(0.0, 0.0, 0.0, 0.0, 0.0, 0.0, 0.0, 0.0, 0.0)",0.0,0.0,0.0,"(0.0, 0.0, 0.0, 0.0, 0.0, 0.0, 0.0, 0.0, 0.0)"
2018/12/16/17:22:09.025938,103946,1545002529,25768995,imu_link,-0.0405642128111,-0.0359751024747,0.697613290329,0.714420068165,"(0.02, 0.0, 0.0, 0.0, 0.02, 0.0, 0.0, 0.0, 0.02)",0.0,0.0,0.0,"(0.0, 0.0, 0.0, 0.0, 0.0, 0.0, 0.0, 0.0, 0.0)",0.0,0.0,0.0,"(0.0, 0.0, 0.0, 0.0, 0.0, 0.0, 0.0, 0.0, 0.0)"
2018/12/16/17:22:09.035888,103947,1545002529,35660982,imu_link,-0.0405951023475,-0.0359895128408,0.69758697771,0.714443280576,"(0.02, 0.0, 0.0, 0.0, 0.02, 0.0, 0.0, 0.0, 0.02)",0.0,0.0,0.0,"(0.0, 0.0, 0.0, 0.0, 0.0, 0.0, 0.0, 0.0, 0.0)",0.0,0.0,0.0,"(0.0, 0.0, 0.0, 0.0, 0.0, 0.0, 0.0, 0.0, 0.0)"
2018/12/16/17:22:09.045962,103948,1545002529,45700073,imu_link,-0.0406140676271,-0.0360060278834,0.697558216608,0.714469452048,"(0.02, 0.0, 0.0, 0.0, 0.02, 0.0, 0.0, 0.0, 0.02)",0.0,0.0,0.0,"(0.0, 0.0, 0.0, 0.0, 0.0, 0.0, 0.0, 0.0, 0.0)",0.0,0.0,0.0,"(0.0, 0.0, 0.0, 0.0, 0.0, 0.0, 0.0, 0.0, 0.0)"
2018/12/16/17:22:09.055949,103949,1545002529,55681943,imu_link,-0.0405719290694,-0.036036217688,0.697538905195,0.714489177893,"(0.02, 0.0, 0.0, 0.0, 0.02, 0.0, 0.0, 0.0, 0.02)",0.0,0.0,0.0,"(0.0, 0.0, 0.0, 0.0, 0.0, 0.0, 0.0, 0.0, 0.0)",0.0,0.0,0.0,"(0.0, 0.0, 0.0, 0.0, 0.0, 0.0, 0.0, 0.0, 0.0)"
2018/12/16/17:22:09.066085,103950,1545002529,65860986,imu_link,-0.0405602384614,-0.0359980338323,0.697508769147,0.714521186235,"(0.02, 0.0, 0.0, 0.0, 0.02, 0.0, 0.0, 0.0, 0.02)",0.0,0.0,0.0,"(0.0, 0.0, 0.0, 0.0, 0.0, 0.0, 0.0, 0.0, 0.0)",0.0,0.0,0.0,"(0.0, 0.0, 0.0, 0.0, 0.0, 0.0, 0.0, 0.0, 0.0)"
2018/12/16/17:22:09.075919,103951,1545002529,75717926,imu_link,-0.0405537001568,-0.0359541641354,0.697482883849,0.714549034162,"(0.02, 0.0, 0.0, 0.0, 0.02, 0.0, 0.0, 0.0, 0.02)",0.0,0.0,0.0,"(0.0, 0.0, 0.0, 0.0, 0.0, 0.0, 0.0, 0.0, 0.0)",0.0,0.0,0.0,"(0.0, 0.0, 0.0, 0.0, 0.0, 0.0, 0.0, 0.0, 0.0)"
2018/12/16/17:22:09.085984,103952,1545002529,85748910,imu_link,-0.0405322370618,-0.0359131164771,0.697466677736,0.7145681348,"(0.02, 0.0, 0.0, 0.0, 0.02, 0.0, 0.0, 0.0, 0.02)",0.0,0.0,0.0,"(0.0, 0.0, 0.0, 0.0, 0.0, 0.0, 0.0, 0.0, 0.0)",0.0,0.0,0.0,"(0.0, 0.0, 0.0, 0.0, 0.0, 0.0, 0.0, 0.0, 0.0)"
2018/12/16/17:22:09.096222,103953,1545002529,95715045,imu_link,-0.0404988822639,-0.0359067944828,0.697446627123,0.714589913839,"(0.02, 0.0, 0.0, 0.0, 0.02, 0.0, 0.0, 0.0, 0.02)",0.0,0.0,0.0,"(0.0, 0.0, 0.0, 0.0, 0.0, 0.0, 0.0, 0.0, 0.0)",0.0,0.0,0.0,"(0.0, 0.0, 0.0, 0.0, 0.0, 0.0, 0.0, 0.0, 0.0)"
2018/12/16/17:22:09.105924,103954,1545002529,105705976,imu_link,-0.0404592855165,-0.0358766737352,0.697413963625,0.714625547988,"(0.02, 0.0, 0.0, 0.0, 0.02, 0.0, 0.0, 0.0, 0.02)",0.0,0.0,0.0,"(0.0, 0.0, 0.0, 0.0, 0.0, 0.0, 0.0, 0.0, 0.0)",0.0,0.0,0.0,"(0.0, 0.0, 0.0, 0.0, 0.0, 0.0, 0.0, 0.0, 0.0)"
2018/12/16/17:22:09.116204,103955,1545002529,115726947,imu_link,-0.0404615067915,-0.0358227778181,0.697369734233,0.71467128726,"(0.02, 0.0, 0.0, 0.0, 0.02, 0.0, 0.0, 0.0, 0.02)",0.0,0.0,0.0,"(0.0, 0.0, 0.0, 0.0, 0.0, 0.0, 0.0, 0.0, 0.0)",0.0,0.0,0.0,"(0.0, 0.0, 0.0, 0.0, 0.0, 0.0, 0.0, 0.0, 0.0)"
2018/12/16/17:22:09.125885,103956,1545002529,125675916,imu_link,-0.0404531843161,-0.0357878459138,0.697336788033,0.714705655511,"(0.02, 0.0, 0.0, 0.0, 0.02, 0.0, 0.0, 0.0, 0.02)",0.0,0.0,0.0,"(0.0, 0.0, 0.0, 0.0, 0.0, 0.0, 0.0, 0.0, 0.0)",0.0,0.0,0.0,"(0.0, 0.0, 0.0, 0.0, 0.0, 0.0, 0.0, 0.0, 0.0)"
2018/12/16/17:22:09.135889,103957,1545002529,135641098,imu_link,-0.0404198166956,-0.0357893802404,0.697307309044,0.714736227873,"(0.02, 0.0, 0.0, 0.0, 0.02, 0.0, 0.0, 0.0, 0.02)",0.0,0.0,0.0,"(0.0, 0.0, 0.0, 0.0, 0.0, 0.0, 0.0, 0.0, 0.0)",0.0,0.0,0.0,"(0.0, 0.0, 0.0, 0.0, 0.0, 0.0, 0.0, 0.0, 0.0)"
2018/12/16/17:22:09.145889,103958,1545002529,145694017,imu_link,-0.04040935338,-0.0357703353946,0.697277599131,0.714766757072,"(0.02, 0.0, 0.0, 0.0, 0.02, 0.0, 0.0, 0.0, 0.02)",0.0,0.0,0.0,"(0.0, 0.0, 0.0, 0.0, 0.0, 0.0, 0.0, 0.0, 0.0)",0.0,0.0,0.0,"(0.0, 0.0, 0.0, 0.0, 0.0, 0.0, 0.0, 0.0, 0.0)"
2018/12/16/17:22:09.155892,103959,1545002529,155648946,imu_link,-0.0404314213293,-0.0357355343543,0.697249891665,0.714794278326,"(0.02, 0.0, 0.0, 0.0, 0.02, 0.0, 0.0, 0.0, 0.02)",0.0,0.0,0.0,"(0.0, 0.0, 0.0, 0.0, 0.0, 0.0, 0.0, 0.0, 0.0)",0.0,0.0,0.0,"(0.0, 0.0, 0.0, 0.0, 0.0, 0.0, 0.0, 0.0, 0.0)"
2018/12/16/17:22:09.166040,103960,1545002529,165788888,imu_link,-0.0404645569075,-0.0357133920734,0.697224540084,0.714818238412,"(0.02, 0.0, 0.0, 0.0, 0.02, 0.0, 0.0, 0.0, 0.02)",0.0,0.0,0.0,"(0.0, 0.0, 0.0, 0.0, 0.0, 0.0, 0.0, 0.0, 0.0)",0.0,0.0,0.0,"(0.0, 0.0, 0.0, 0.0, 0.0, 0.0, 0.0, 0.0, 0.0)"
2018/12/16/17:22:09.176016,103961,1545002529,175827980,imu_link,-0.0404836636458,-0.0357442925281,0.697193648715,0.714845741906,"(0.02, 0.0, 0.0, 0.0, 0.02, 0.0, 0.0, 0.0, 0.02)",0.0,0.0,0.0,"(0.0, 0.0, 0.0, 0.0, 0.0, 0.0, 0.0, 0.0, 0.0)",0.0,0.0,0.0,"(0.0, 0.0, 0.0, 0.0, 0.0, 0.0, 0.0, 0.0, 0.0)"
2018/12/16/17:22:09.186324,103962,1545002529,185894012,imu_link,-0.0405231200232,-0.035770125467,0.697166119147,0.714869062963,"(0.02, 0.0, 0.0, 0.0, 0.02, 0.0, 0.0, 0.0, 0.02)",0.0,0.0,0.0,"(0.0, 0.0, 0.0, 0.0, 0.0, 0.0, 0.0, 0.0, 0.0)",0.0,0.0,0.0,"(0.0, 0.0, 0.0, 0.0, 0.0, 0.0, 0.0, 0.0, 0.0)"
2018/12/16/17:22:09.196088,103963,1545002529,195724010,imu_link,-0.0405604223043,-0.0357620649093,0.697132214212,0.714900414578,"(0.02, 0.0, 0.0, 0.0, 0.02, 0.0, 0.0, 0.0, 0.02)",0.0,0.0,0.0,"(0.0, 0.0, 0.0, 0.0, 0.0, 0.0, 0.0, 0.0, 0.0)",0.0,0.0,0.0,"(0.0, 0.0, 0.0, 0.0, 0.0, 0.0, 0.0, 0.0, 0.0)"
2018/12/16/17:22:09.206096,103964,1545002529,205837965,imu_link,-0.040586816269,-0.0357440403357,0.697102017073,0.714929263437,"(0.02, 0.0, 0.0, 0.0, 0.02, 0.0, 0.0, 0.0, 0.02)",0.0,0.0,0.0,"(0.0, 0.0, 0.0, 0.0, 0.0, 0.0, 0.0, 0.0, 0.0)",0.0,0.0,0.0,"(0.0, 0.0, 0.0, 0.0, 0.0, 0.0, 0.0, 0.0, 0.0)"
2018/12/16/17:22:09.216434,103965,1545002529,216135025,imu_link,-0.0406257098647,-0.0357326419999,0.69707162227,0.714957259856,"(0.02, 0.0, 0.0, 0.0, 0.02, 0.0, 0.0, 0.0, 0.02)",0.0,0.0,0.0,"(0.0, 0.0, 0.0, 0.0, 0.0, 0.0, 0.0, 0.0, 0.0)",0.0,0.0,0.0,"(0.0, 0.0, 0.0, 0.0, 0.0, 0.0, 0.0, 0.0, 0.0)"
2018/12/16/17:22:09.225917,103966,1545002529,225683927,imu_link,-0.0406306966812,-0.0357611838287,0.69703363463,0.714992584866,"(0.02, 0.0, 0.0, 0.0, 0.02, 0.0, 0.0, 0.0, 0.02)",0.0,0.0,0.0,"(0.0, 0.0, 0.0, 0.0, 0.0, 0.0, 0.0, 0.0, 0.0)",0.0,0.0,0.0,"(0.0, 0.0, 0.0, 0.0, 0.0, 0.0, 0.0, 0.0, 0.0)"
2018/12/16/17:22:09.235904,103967,1545002529,235680103,imu_link,-0.040624113587,-0.0357788304247,0.696995439264,0.715029310122,"(0.02, 0.0, 0.0, 0.0, 0.02, 0.0, 0.0, 0.0, 0.02)",0.0,0.0,0.0,"(0.0, 0.0, 0.0, 0.0, 0.0, 0.0, 0.0, 0.0, 0.0)",0.0,0.0,0.0,"(0.0, 0.0, 0.0, 0.0, 0.0, 0.0, 0.0, 0.0, 0.0)"
2018/12/16/17:22:09.245971,103968,1545002529,245718002,imu_link,-0.0406354176297,-0.0357370405907,0.696952705372,0.715072411186,"(0.02, 0.0, 0.0, 0.0, 0.02, 0.0, 0.0, 0.0, 0.02)",0.0,0.0,0.0,"(0.0, 0.0, 0.0, 0.0, 0.0, 0.0, 0.0, 0.0, 0.0)",0.0,0.0,0.0,"(0.0, 0.0, 0.0, 0.0, 0.0, 0.0, 0.0, 0.0, 0.0)"
2018/12/16/17:22:09.255942,103969,1545002529,255692005,imu_link,-0.0405816124831,-0.035702413537,0.696931893668,0.715097480058,"(0.02, 0.0, 0.0, 0.0, 0.02, 0.0, 0.0, 0.0, 0.02)",0.0,0.0,0.0,"(0.0, 0.0, 0.0, 0.0, 0.0, 0.0, 0.0, 0.0, 0.0)",0.0,0.0,0.0,"(0.0, 0.0, 0.0, 0.0, 0.0, 0.0, 0.0, 0.0, 0.0)"
2018/12/16/17:22:09.266308,103970,1545002529,265953063,imu_link,-0.0405597158925,-0.035679924193,0.696894415338,0.715136369042,"(0.02, 0.0, 0.0, 0.0, 0.02, 0.0, 0.0, 0.0, 0.02)",0.0,0.0,0.0,"(0.0, 0.0, 0.0, 0.0, 0.0, 0.0, 0.0, 0.0, 0.0)",0.0,0.0,0.0,"(0.0, 0.0, 0.0, 0.0, 0.0, 0.0, 0.0, 0.0, 0.0)"
2018/12/16/17:22:09.275912,103971,1545002529,275669097,imu_link,-0.0405215542631,-0.0356777030002,0.696864346765,0.715167943463,"(0.02, 0.0, 0.0, 0.0, 0.02, 0.0, 0.0, 0.0, 0.02)",0.0,0.0,0.0,"(0.0, 0.0, 0.0, 0.0, 0.0, 0.0, 0.0, 0.0, 0.0)",0.0,0.0,0.0,"(0.0, 0.0, 0.0, 0.0, 0.0, 0.0, 0.0, 0.0, 0.0)"
2018/12/16/17:22:09.285960,103972,1545002529,285700082,imu_link,-0.0404323075775,-0.0356485707042,0.696839950524,0.715198218164,"(0.02, 0.0, 0.0, 0.0, 0.02, 0.0, 0.0, 0.0, 0.02)",0.0,0.0,0.0,"(0.0, 0.0, 0.0, 0.0, 0.0, 0.0, 0.0, 0.0, 0.0)",0.0,0.0,0.0,"(0.0, 0.0, 0.0, 0.0, 0.0, 0.0, 0.0, 0.0, 0.0)"
2018/12/16/17:22:09.295899,103973,1545002529,295648097,imu_link,-0.0403713773225,-0.035545195577,0.696811709733,0.715234319746,"(0.02, 0.0, 0.0, 0.0, 0.02, 0.0, 0.0, 0.0, 0.02)",0.0,0.0,0.0,"(0.0, 0.0, 0.0, 0.0, 0.0, 0.0, 0.0, 0.0, 0.0)",0.0,0.0,0.0,"(0.0, 0.0, 0.0, 0.0, 0.0, 0.0, 0.0, 0.0, 0.0)"
2018/12/16/17:22:09.305878,103974,1545002529,305697917,imu_link,-0.0403406836152,-0.0354560342554,0.696776187602,0.715275082239,"(0.02, 0.0, 0.0, 0.0, 0.02, 0.0, 0.0, 0.0, 0.02)",0.0,0.0,0.0,"(0.0, 0.0, 0.0, 0.0, 0.0, 0.0, 0.0, 0.0, 0.0)",0.0,0.0,0.0,"(0.0, 0.0, 0.0, 0.0, 0.0, 0.0, 0.0, 0.0, 0.0)"
2018/12/16/17:22:09.316060,103975,1545002529,315788030,imu_link,-0.0402710766023,-0.0354857124887,0.69674835359,0.715304645846,"(0.02, 0.0, 0.0, 0.0, 0.02, 0.0, 0.0, 0.0, 0.02)",0.0,0.0,0.0,"(0.0, 0.0, 0.0, 0.0, 0.0, 0.0, 0.0, 0.0, 0.0)",0.0,0.0,0.0,"(0.0, 0.0, 0.0, 0.0, 0.0, 0.0, 0.0, 0.0, 0.0)"
2018/12/16/17:22:09.326058,103976,1545002529,325829982,imu_link,-0.0402245773116,-0.0355182367732,0.69672094689,0.715332342622,"(0.02, 0.0, 0.0, 0.0, 0.02, 0.0, 0.0, 0.0, 0.02)",0.0,0.0,0.0,"(0.0, 0.0, 0.0, 0.0, 0.0, 0.0, 0.0, 0.0, 0.0)",0.0,0.0,0.0,"(0.0, 0.0, 0.0, 0.0, 0.0, 0.0, 0.0, 0.0, 0.0)"
2018/12/16/17:22:09.335904,103977,1545002529,335685014,imu_link,-0.0402167172144,-0.0354586884503,0.696706263596,0.715350039726,"(0.02, 0.0, 0.0, 0.0, 0.02, 0.0, 0.0, 0.0, 0.02)",0.0,0.0,0.0,"(0.0, 0.0, 0.0, 0.0, 0.0, 0.0, 0.0, 0.0, 0.0)",0.0,0.0,0.0,"(0.0, 0.0, 0.0, 0.0, 0.0, 0.0, 0.0, 0.0, 0.0)"
2018/12/16/17:22:09.345961,103978,1545002529,345673084,imu_link,-0.040204607289,-0.0353694524949,0.696678993943,0.715381695867,"(0.02, 0.0, 0.0, 0.0, 0.02, 0.0, 0.0, 0.0, 0.02)",0.0,0.0,0.0,"(0.0, 0.0, 0.0, 0.0, 0.0, 0.0, 0.0, 0.0, 0.0)",0.0,0.0,0.0,"(0.0, 0.0, 0.0, 0.0, 0.0, 0.0, 0.0, 0.0, 0.0)"
2018/12/16/17:22:09.355952,103979,1545002529,355729103,imu_link,-0.0401830829403,-0.0353931368663,0.69665251926,0.715407515418,"(0.02, 0.0, 0.0, 0.0, 0.02, 0.0, 0.0, 0.0, 0.02)",0.0,0.0,0.0,"(0.0, 0.0, 0.0, 0.0, 0.0, 0.0, 0.0, 0.0, 0.0)",0.0,0.0,0.0,"(0.0, 0.0, 0.0, 0.0, 0.0, 0.0, 0.0, 0.0, 0.0)"
2018/12/16/17:22:09.366277,103980,1545002529,366034984,imu_link,-0.0401892625155,-0.0354362608414,0.69662438603,0.715432428245,"(0.02, 0.0, 0.0, 0.0, 0.02, 0.0, 0.0, 0.0, 0.02)",0.0,0.0,0.0,"(0.0, 0.0, 0.0, 0.0, 0.0, 0.0, 0.0, 0.0, 0.0)",0.0,0.0,0.0,"(0.0, 0.0, 0.0, 0.0, 0.0, 0.0, 0.0, 0.0, 0.0)"
2018/12/16/17:22:09.375849,103981,1545002529,375622034,imu_link,-0.0401975196425,-0.0354077690312,0.696605630832,0.71545163666,"(0.02, 0.0, 0.0, 0.0, 0.02, 0.0, 0.0, 0.0, 0.02)",0.0,0.0,0.0,"(0.0, 0.0, 0.0, 0.0, 0.0, 0.0, 0.0, 0.0, 0.0)",0.0,0.0,0.0,"(0.0, 0.0, 0.0, 0.0, 0.0, 0.0, 0.0, 0.0, 0.0)"
2018/12/16/17:22:09.385885,103982,1545002529,385644912,imu_link,-0.0402284635021,-0.0353631785556,0.696580576355,0.715476496449,"(0.02, 0.0, 0.0, 0.0, 0.02, 0.0, 0.0, 0.0, 0.02)",0.0,0.0,0.0,"(0.0, 0.0, 0.0, 0.0, 0.0, 0.0, 0.0, 0.0, 0.0)",0.0,0.0,0.0,"(0.0, 0.0, 0.0, 0.0, 0.0, 0.0, 0.0, 0.0, 0.0)"
2018/12/16/17:22:09.395809,103983,1545002529,395612001,imu_link,-0.0402785699165,-0.0353353067402,0.696555912665,0.715499065991,"(0.02, 0.0, 0.0, 0.0, 0.02, 0.0, 0.0, 0.0, 0.02)",0.0,0.0,0.0,"(0.0, 0.0, 0.0, 0.0, 0.0, 0.0, 0.0, 0.0, 0.0)",0.0,0.0,0.0,"(0.0, 0.0, 0.0, 0.0, 0.0, 0.0, 0.0, 0.0, 0.0)"
2018/12/16/17:22:09.406036,103984,1545002529,405832052,imu_link,-0.04027117799,-0.0353596993885,0.69653250503,0.715521064204,"(0.02, 0.0, 0.0, 0.0, 0.02, 0.0, 0.0, 0.0, 0.02)",0.0,0.0,0.0,"(0.0, 0.0, 0.0, 0.0, 0.0, 0.0, 0.0, 0.0, 0.0)",0.0,0.0,0.0,"(0.0, 0.0, 0.0, 0.0, 0.0, 0.0, 0.0, 0.0, 0.0)"
2018/12/16/17:22:09.416238,103985,1545002529,415919065,imu_link,-0.0402807506246,-0.0353605129403,0.696518083905,0.715534523309,"(0.02, 0.0, 0.0, 0.0, 0.02, 0.0, 0.0, 0.0, 0.02)",0.0,0.0,0.0,"(0.0, 0.0, 0.0, 0.0, 0.0, 0.0, 0.0, 0.0, 0.0)",0.0,0.0,0.0,"(0.0, 0.0, 0.0, 0.0, 0.0, 0.0, 0.0, 0.0, 0.0)"
2018/12/16/17:22:09.426141,103986,1545002529,425889015,imu_link,-0.0402938864666,-0.0353216293217,0.69648212574,0.715570704921,"(0.02, 0.0, 0.0, 0.0, 0.02, 0.0, 0.0, 0.0, 0.02)",0.0,0.0,0.0,"(0.0, 0.0, 0.0, 0.0, 0.0, 0.0, 0.0, 0.0, 0.0)",0.0,0.0,0.0,"(0.0, 0.0, 0.0, 0.0, 0.0, 0.0, 0.0, 0.0, 0.0)"
2018/12/16/17:22:09.436194,103987,1545002529,435941934,imu_link,-0.0402791342302,-0.0352495507395,0.696462418075,0.715594271028,"(0.02, 0.0, 0.0, 0.0, 0.02, 0.0, 0.0, 0.0, 0.02)",0.0,0.0,0.0,"(0.0, 0.0, 0.0, 0.0, 0.0, 0.0, 0.0, 0.0, 0.0)",0.0,0.0,0.0,"(0.0, 0.0, 0.0, 0.0, 0.0, 0.0, 0.0, 0.0, 0.0)"
2018/12/16/17:22:09.445868,103988,1545002529,445693016,imu_link,-0.0402452052339,-0.0352250285568,0.696430737182,0.715628219907,"(0.02, 0.0, 0.0, 0.0, 0.02, 0.0, 0.0, 0.0, 0.02)",0.0,0.0,0.0,"(0.0, 0.0, 0.0, 0.0, 0.0, 0.0, 0.0, 0.0, 0.0)",0.0,0.0,0.0,"(0.0, 0.0, 0.0, 0.0, 0.0, 0.0, 0.0, 0.0, 0.0)"
2018/12/16/17:22:09.456012,103989,1545002529,455734014,imu_link,-0.0402236671228,-0.0352320510539,0.696408495333,0.715650729623,"(0.02, 0.0, 0.0, 0.0, 0.02, 0.0, 0.0, 0.0, 0.02)",0.0,0.0,0.0,"(0.0, 0.0, 0.0, 0.0, 0.0, 0.0, 0.0, 0.0, 0.0)",0.0,0.0,0.0,"(0.0, 0.0, 0.0, 0.0, 0.0, 0.0, 0.0, 0.0, 0.0)"
2018/12/16/17:22:09.466394,103990,1545002529,466216087,imu_link,-0.040230776058,-0.0351898953932,0.696381386857,0.715678782667,"(0.02, 0.0, 0.0, 0.0, 0.02, 0.0, 0.0, 0.0, 0.02)",0.0,0.0,0.0,"(0.0, 0.0, 0.0, 0.0, 0.0, 0.0, 0.0, 0.0, 0.0)",0.0,0.0,0.0,"(0.0, 0.0, 0.0, 0.0, 0.0, 0.0, 0.0, 0.0, 0.0)"
2018/12/16/17:22:09.475998,103991,1545002529,475728988,imu_link,-0.0402289108272,-0.0351420537462,0.696361203947,0.715700876365,"(0.02, 0.0, 0.0, 0.0, 0.02, 0.0, 0.0, 0.0, 0.02)",0.0,0.0,0.0,"(0.0, 0.0, 0.0, 0.0, 0.0, 0.0, 0.0, 0.0, 0.0)",0.0,0.0,0.0,"(0.0, 0.0, 0.0, 0.0, 0.0, 0.0, 0.0, 0.0, 0.0)"
2018/12/16/17:22:09.486132,103992,1545002529,485742092,imu_link,-0.0402050370289,-0.0351420644496,0.696336638962,0.71572611769,"(0.02, 0.0, 0.0, 0.0, 0.02, 0.0, 0.0, 0.0, 0.02)",0.0,0.0,0.0,"(0.0, 0.0, 0.0, 0.0, 0.0, 0.0, 0.0, 0.0, 0.0)",0.0,0.0,0.0,"(0.0, 0.0, 0.0, 0.0, 0.0, 0.0, 0.0, 0.0, 0.0)"
2018/12/16/17:22:09.495883,103993,1545002529,495655059,imu_link,-0.0401902834249,-0.0351379666852,0.696308219438,0.715754795973,"(0.02, 0.0, 0.0, 0.0, 0.02, 0.0, 0.0, 0.0, 0.02)",0.0,0.0,0.0,"(0.0, 0.0, 0.0, 0.0, 0.0, 0.0, 0.0, 0.0, 0.0)",0.0,0.0,0.0,"(0.0, 0.0, 0.0, 0.0, 0.0, 0.0, 0.0, 0.0, 0.0)"
2018/12/16/17:22:09.505967,103994,1545002529,505719900,imu_link,-0.0401832961393,-0.0351290546574,0.696289935489,0.715773412448,"(0.02, 0.0, 0.0, 0.0, 0.02, 0.0, 0.0, 0.0, 0.02)",0.0,0.0,0.0,"(0.0, 0.0, 0.0, 0.0, 0.0, 0.0, 0.0, 0.0, 0.0)",0.0,0.0,0.0,"(0.0, 0.0, 0.0, 0.0, 0.0, 0.0, 0.0, 0.0, 0.0)"
2018/12/16/17:22:09.516067,103995,1545002529,515714883,imu_link,-0.040194227234,-0.0350852498831,0.69626997337,0.715794365388,"(0.02, 0.0, 0.0, 0.0, 0.02, 0.0, 0.0, 0.0, 0.02)",0.0,0.0,0.0,"(0.0, 0.0, 0.0, 0.0, 0.0, 0.0, 0.0, 0.0, 0.0)",0.0,0.0,0.0,"(0.0, 0.0, 0.0, 0.0, 0.0, 0.0, 0.0, 0.0, 0.0)"
2018/12/16/17:22:09.525949,103996,1545002529,525753021,imu_link,-0.0401958370674,-0.0350825090593,0.696256586527,0.715807430779,"(0.02, 0.0, 0.0, 0.0, 0.02, 0.0, 0.0, 0.0, 0.02)",0.0,0.0,0.0,"(0.0, 0.0, 0.0, 0.0, 0.0, 0.0, 0.0, 0.0, 0.0)",0.0,0.0,0.0,"(0.0, 0.0, 0.0, 0.0, 0.0, 0.0, 0.0, 0.0, 0.0)"
2018/12/16/17:22:09.535961,103997,1545002529,535703897,imu_link,-0.0402378708416,-0.0350843382394,0.696237188973,0.715823846803,"(0.02, 0.0, 0.0, 0.0, 0.02, 0.0, 0.0, 0.0, 0.02)",0.0,0.0,0.0,"(0.0, 0.0, 0.0, 0.0, 0.0, 0.0, 0.0, 0.0, 0.0)",0.0,0.0,0.0,"(0.0, 0.0, 0.0, 0.0, 0.0, 0.0, 0.0, 0.0, 0.0)"
2018/12/16/17:22:09.545950,103998,1545002529,545734882,imu_link,-0.0402549212964,-0.0350954275944,0.696214453636,0.715844457142,"(0.02, 0.0, 0.0, 0.0, 0.02, 0.0, 0.0, 0.0, 0.02)",0.0,0.0,0.0,"(0.0, 0.0, 0.0, 0.0, 0.0, 0.0, 0.0, 0.0, 0.0)",0.0,0.0,0.0,"(0.0, 0.0, 0.0, 0.0, 0.0, 0.0, 0.0, 0.0, 0.0)"
2018/12/16/17:22:09.556019,103999,1545002529,555851936,imu_link,-0.0402703563372,-0.0350920350982,0.696195746628,0.715861948877,"(0.02, 0.0, 0.0, 0.0, 0.02, 0.0, 0.0, 0.0, 0.02)",0.0,0.0,0.0,"(0.0, 0.0, 0.0, 0.0, 0.0, 0.0, 0.0, 0.0, 0.0)",0.0,0.0,0.0,"(0.0, 0.0, 0.0, 0.0, 0.0, 0.0, 0.0, 0.0, 0.0)"
2018/12/16/17:22:09.566226,104000,1545002529,565968036,imu_link,-0.0403327554317,-0.0350652823265,0.69618343205,0.715871722974,"(0.02, 0.0, 0.0, 0.0, 0.02, 0.0, 0.0, 0.0, 0.02)",0.0,0.0,0.0,"(0.0, 0.0, 0.0, 0.0, 0.0, 0.0, 0.0, 0.0, 0.0)",0.0,0.0,0.0,"(0.0, 0.0, 0.0, 0.0, 0.0, 0.0, 0.0, 0.0, 0.0)"
2018/12/16/17:22:09.576323,104001,1545002529,576078891,imu_link,-0.0403596609249,-0.0350669459891,0.696170779466,0.715882429514,"(0.02, 0.0, 0.0, 0.0, 0.02, 0.0, 0.0, 0.0, 0.02)",0.0,0.0,0.0,"(0.0, 0.0, 0.0, 0.0, 0.0, 0.0, 0.0, 0.0, 0.0)",0.0,0.0,0.0,"(0.0, 0.0, 0.0, 0.0, 0.0, 0.0, 0.0, 0.0, 0.0)"
2018/12/16/17:22:09.586122,104002,1545002529,585907936,imu_link,-0.0403594179,-0.0350719038158,0.696165128005,0.71588769615,"(0.02, 0.0, 0.0, 0.0, 0.02, 0.0, 0.0, 0.0, 0.02)",0.0,0.0,0.0,"(0.0, 0.0, 0.0, 0.0, 0.0, 0.0, 0.0, 0.0, 0.0)",0.0,0.0,0.0,"(0.0, 0.0, 0.0, 0.0, 0.0, 0.0, 0.0, 0.0, 0.0)"
2018/12/16/17:22:09.596028,104003,1545002529,595814943,imu_link,-0.0403624746208,-0.0350675605802,0.696161427915,0.715891334716,"(0.02, 0.0, 0.0, 0.0, 0.02, 0.0, 0.0, 0.0, 0.02)",0.0,0.0,0.0,"(0.0, 0.0, 0.0, 0.0, 0.0, 0.0, 0.0, 0.0, 0.0)",0.0,0.0,0.0,"(0.0, 0.0, 0.0, 0.0, 0.0, 0.0, 0.0, 0.0, 0.0)"
2018/12/16/17:22:09.605917,104004,1545002529,605731010,imu_link,-0.0403864327515,-0.035043882434,0.696154211682,0.715898160293,"(0.02, 0.0, 0.0, 0.0, 0.02, 0.0, 0.0, 0.0, 0.02)",0.0,0.0,0.0,"(0.0, 0.0, 0.0, 0.0, 0.0, 0.0, 0.0, 0.0, 0.0)",0.0,0.0,0.0,"(0.0, 0.0, 0.0, 0.0, 0.0, 0.0, 0.0, 0.0, 0.0)"
2018/12/16/17:22:09.616799,104005,1545002529,616579055,imu_link,-0.040372329641,-0.035041524832,0.69614295296,0.715910019193,"(0.02, 0.0, 0.0, 0.0, 0.02, 0.0, 0.0, 0.0, 0.02)",0.0,0.0,0.0,"(0.0, 0.0, 0.0, 0.0, 0.0, 0.0, 0.0, 0.0, 0.0)",0.0,0.0,0.0,"(0.0, 0.0, 0.0, 0.0, 0.0, 0.0, 0.0, 0.0, 0.0)"
2018/12/16/17:22:09.625914,104006,1545002529,625735998,imu_link,-0.0403858450108,-0.0350109159879,0.696146456716,0.715907347417,"(0.02, 0.0, 0.0, 0.0, 0.02, 0.0, 0.0, 0.0, 0.02)",0.0,0.0,0.0,"(0.0, 0.0, 0.0, 0.0, 0.0, 0.0, 0.0, 0.0, 0.0)",0.0,0.0,0.0,"(0.0, 0.0, 0.0, 0.0, 0.0, 0.0, 0.0, 0.0, 0.0)"
2018/12/16/17:22:09.635952,104007,1545002529,635757923,imu_link,-0.0404157256624,-0.035007730175,0.696137681143,0.715914350212,"(0.02, 0.0, 0.0, 0.0, 0.02, 0.0, 0.0, 0.0, 0.02)",0.0,0.0,0.0,"(0.0, 0.0, 0.0, 0.0, 0.0, 0.0, 0.0, 0.0, 0.0)",0.0,0.0,0.0,"(0.0, 0.0, 0.0, 0.0, 0.0, 0.0, 0.0, 0.0, 0.0)"
2018/12/16/17:22:09.645918,104008,1545002529,645673036,imu_link,-0.040465474775,-0.0350324987992,0.696135959242,0.715912002714,"(0.02, 0.0, 0.0, 0.0, 0.02, 0.0, 0.0, 0.0, 0.02)",0.0,0.0,0.0,"(0.0, 0.0, 0.0, 0.0, 0.0, 0.0, 0.0, 0.0, 0.0)",0.0,0.0,0.0,"(0.0, 0.0, 0.0, 0.0, 0.0, 0.0, 0.0, 0.0, 0.0)"
2018/12/16/17:22:09.656360,104009,1545002529,656116962,imu_link,-0.0404708745602,-0.0350428634124,0.69612697632,0.715919924905,"(0.02, 0.0, 0.0, 0.0, 0.02, 0.0, 0.0, 0.0, 0.02)",0.0,0.0,0.0,"(0.0, 0.0, 0.0, 0.0, 0.0, 0.0, 0.0, 0.0, 0.0)",0.0,0.0,0.0,"(0.0, 0.0, 0.0, 0.0, 0.0, 0.0, 0.0, 0.0, 0.0)"
2018/12/16/17:22:09.666087,104010,1545002529,665837049,imu_link,-0.0404851144431,-0.0350106129861,0.696108335228,0.715938822884,"(0.02, 0.0, 0.0, 0.0, 0.02, 0.0, 0.0, 0.0, 0.02)",0.0,0.0,0.0,"(0.0, 0.0, 0.0, 0.0, 0.0, 0.0, 0.0, 0.0, 0.0)",0.0,0.0,0.0,"(0.0, 0.0, 0.0, 0.0, 0.0, 0.0, 0.0, 0.0, 0.0)"
2018/12/16/17:22:09.676054,104011,1545002529,675798892,imu_link,-0.0404859170885,-0.0349919364487,0.696095222027,0.7159524403,"(0.02, 0.0, 0.0, 0.0, 0.02, 0.0, 0.0, 0.0, 0.02)",0.0,0.0,0.0,"(0.0, 0.0, 0.0, 0.0, 0.0, 0.0, 0.0, 0.0, 0.0)",0.0,0.0,0.0,"(0.0, 0.0, 0.0, 0.0, 0.0, 0.0, 0.0, 0.0, 0.0)"
2018/12/16/17:22:09.685902,104012,1545002529,685723066,imu_link,-0.0404904132149,-0.0350241750707,0.696075910615,0.715969385002,"(0.02, 0.0, 0.0, 0.0, 0.02, 0.0, 0.0, 0.0, 0.02)",0.0,0.0,0.0,"(0.0, 0.0, 0.0, 0.0, 0.0, 0.0, 0.0, 0.0, 0.0)",0.0,0.0,0.0,"(0.0, 0.0, 0.0, 0.0, 0.0, 0.0, 0.0, 0.0, 0.0)"
2018/12/16/17:22:09.695861,104013,1545002529,695631027,imu_link,-0.0404994581939,-0.0350562178944,0.696054790861,0.715987837601,"(0.02, 0.0, 0.0, 0.0, 0.02, 0.0, 0.0, 0.0, 0.02)",0.0,0.0,0.0,"(0.0, 0.0, 0.0, 0.0, 0.0, 0.0, 0.0, 0.0, 0.0)",0.0,0.0,0.0,"(0.0, 0.0, 0.0, 0.0, 0.0, 0.0, 0.0, 0.0, 0.0)"
2018/12/16/17:22:09.706134,104014,1545002529,705931901,imu_link,-0.0405111807397,-0.0350557487858,0.696045923591,0.715995817701,"(0.02, 0.0, 0.0, 0.0, 0.02, 0.0, 0.0, 0.0, 0.02)",0.0,0.0,0.0,"(0.0, 0.0, 0.0, 0.0, 0.0, 0.0, 0.0, 0.0, 0.0)",0.0,0.0,0.0,"(0.0, 0.0, 0.0, 0.0, 0.0, 0.0, 0.0, 0.0, 0.0)"
2018/12/16/17:22:09.716080,104015,1545002529,715671062,imu_link,-0.0405127799522,-0.0350625025438,0.696036499617,0.71600455779,"(0.02, 0.0, 0.0, 0.0, 0.02, 0.0, 0.0, 0.0, 0.02)",0.0,0.0,0.0,"(0.0, 0.0, 0.0, 0.0, 0.0, 0.0, 0.0, 0.0, 0.0)",0.0,0.0,0.0,"(0.0, 0.0, 0.0, 0.0, 0.0, 0.0, 0.0, 0.0, 0.0)"
2018/12/16/17:22:09.725898,104016,1545002529,725698947,imu_link,-0.0405207231518,-0.0351002751652,0.69601542207,0.716022746789,"(0.02, 0.0, 0.0, 0.0, 0.02, 0.0, 0.0, 0.0, 0.02)",0.0,0.0,0.0,"(0.0, 0.0, 0.0, 0.0, 0.0, 0.0, 0.0, 0.0, 0.0)",0.0,0.0,0.0,"(0.0, 0.0, 0.0, 0.0, 0.0, 0.0, 0.0, 0.0, 0.0)"
2018/12/16/17:22:09.735967,104017,1545002529,735713958,imu_link,-0.0405431369054,-0.0351351526397,0.696003573411,0.71603128486,"(0.02, 0.0, 0.0, 0.0, 0.02, 0.0, 0.0, 0.0, 0.02)",0.0,0.0,0.0,"(0.0, 0.0, 0.0, 0.0, 0.0, 0.0, 0.0, 0.0, 0.0)",0.0,0.0,0.0,"(0.0, 0.0, 0.0, 0.0, 0.0, 0.0, 0.0, 0.0, 0.0)"
2018/12/16/17:22:09.746179,104018,1545002529,745948076,imu_link,-0.0405845088136,-0.035140015048,0.69598702796,0.716044784841,"(0.02, 0.0, 0.0, 0.0, 0.02, 0.0, 0.0, 0.0, 0.02)",0.0,0.0,0.0,"(0.0, 0.0, 0.0, 0.0, 0.0, 0.0, 0.0, 0.0, 0.0)",0.0,0.0,0.0,"(0.0, 0.0, 0.0, 0.0, 0.0, 0.0, 0.0, 0.0, 0.0)"
2018/12/16/17:22:09.755979,104019,1545002529,755691051,imu_link,-0.0405785470263,-0.0351502162298,0.695970303432,0.716060877692,"(0.02, 0.0, 0.0, 0.0, 0.02, 0.0, 0.0, 0.0, 0.02)",0.0,0.0,0.0,"(0.0, 0.0, 0.0, 0.0, 0.0, 0.0, 0.0, 0.0, 0.0)",0.0,0.0,0.0,"(0.0, 0.0, 0.0, 0.0, 0.0, 0.0, 0.0, 0.0, 0.0)"
2018/12/16/17:22:09.766209,104020,1545002529,765935897,imu_link,-0.040617264412,-0.0351580021943,0.695953895835,0.716074247258,"(0.02, 0.0, 0.0, 0.0, 0.02, 0.0, 0.0, 0.0, 0.02)",0.0,0.0,0.0,"(0.0, 0.0, 0.0, 0.0, 0.0, 0.0, 0.0, 0.0, 0.0)",0.0,0.0,0.0,"(0.0, 0.0, 0.0, 0.0, 0.0, 0.0, 0.0, 0.0, 0.0)"
2018/12/16/17:22:09.775994,104021,1545002529,775727033,imu_link,-0.0406393849529,-0.0351556028732,0.695949716096,0.716077172268,"(0.02, 0.0, 0.0, 0.0, 0.02, 0.0, 0.0, 0.0, 0.02)",0.0,0.0,0.0,"(0.0, 0.0, 0.0, 0.0, 0.0, 0.0, 0.0, 0.0, 0.0)",0.0,0.0,0.0,"(0.0, 0.0, 0.0, 0.0, 0.0, 0.0, 0.0, 0.0, 0.0)"
2018/12/16/17:22:09.786023,104022,1545002529,785773038,imu_link,-0.040637749128,-0.03520672855,0.695936464381,0.716087632315,"(0.02, 0.0, 0.0, 0.0, 0.02, 0.0, 0.0, 0.0, 0.02)",0.0,0.0,0.0,"(0.0, 0.0, 0.0, 0.0, 0.0, 0.0, 0.0, 0.0, 0.0)",0.0,0.0,0.0,"(0.0, 0.0, 0.0, 0.0, 0.0, 0.0, 0.0, 0.0, 0.0)"
2018/12/16/17:22:09.795845,104023,1545002529,795676946,imu_link,-0.0406291675875,-0.0352339781913,0.695923750097,0.716099135296,"(0.02, 0.0, 0.0, 0.0, 0.02, 0.0, 0.0, 0.0, 0.02)",0.0,0.0,0.0,"(0.0, 0.0, 0.0, 0.0, 0.0, 0.0, 0.0, 0.0, 0.0)",0.0,0.0,0.0,"(0.0, 0.0, 0.0, 0.0, 0.0, 0.0, 0.0, 0.0, 0.0)"
2018/12/16/17:22:09.805992,104024,1545002529,805752992,imu_link,-0.0406807134432,-0.035227651897,0.695904997257,0.716114744219,"(0.02, 0.0, 0.0, 0.0, 0.02, 0.0, 0.0, 0.0, 0.02)",0.0,0.0,0.0,"(0.0, 0.0, 0.0, 0.0, 0.0, 0.0, 0.0, 0.0, 0.0)",0.0,0.0,0.0,"(0.0, 0.0, 0.0, 0.0, 0.0, 0.0, 0.0, 0.0, 0.0)"
2018/12/16/17:22:09.816953,104025,1545002529,815790891,imu_link,-0.0406702057545,-0.0352252921429,0.695883885462,0.716135972503,"(0.02, 0.0, 0.0, 0.0, 0.02, 0.0, 0.0, 0.0, 0.02)",0.0,0.0,0.0,"(0.0, 0.0, 0.0, 0.0, 0.0, 0.0, 0.0, 0.0, 0.0)",0.0,0.0,0.0,"(0.0, 0.0, 0.0, 0.0, 0.0, 0.0, 0.0, 0.0, 0.0)"
2018/12/16/17:22:09.825883,104026,1545002529,825709104,imu_link,-0.0406567340902,-0.0352574204778,0.695875081624,0.71614371117,"(0.02, 0.0, 0.0, 0.0, 0.02, 0.0, 0.0, 0.0, 0.02)",0.0,0.0,0.0,"(0.0, 0.0, 0.0, 0.0, 0.0, 0.0, 0.0, 0.0, 0.0)",0.0,0.0,0.0,"(0.0, 0.0, 0.0, 0.0, 0.0, 0.0, 0.0, 0.0, 0.0)"
2018/12/16/17:22:09.835957,104027,1545002529,835711956,imu_link,-0.0406867762952,-0.0352556961268,0.695864269288,0.716152596067,"(0.02, 0.0, 0.0, 0.0, 0.02, 0.0, 0.0, 0.0, 0.02)",0.0,0.0,0.0,"(0.0, 0.0, 0.0, 0.0, 0.0, 0.0, 0.0, 0.0, 0.0)",0.0,0.0,0.0,"(0.0, 0.0, 0.0, 0.0, 0.0, 0.0, 0.0, 0.0, 0.0)"
2018/12/16/17:22:09.846074,104028,1545002529,845827102,imu_link,-0.0407314902793,-0.0352199836354,0.695846718398,0.716168864826,"(0.02, 0.0, 0.0, 0.0, 0.02, 0.0, 0.0, 0.0, 0.02)",0.0,0.0,0.0,"(0.0, 0.0, 0.0, 0.0, 0.0, 0.0, 0.0, 0.0, 0.0)",0.0,0.0,0.0,"(0.0, 0.0, 0.0, 0.0, 0.0, 0.0, 0.0, 0.0, 0.0)"
2018/12/16/17:22:09.856060,104029,1545002529,855832099,imu_link,-0.0407130938553,-0.0352349655316,0.695850164982,0.716165825132,"(0.02, 0.0, 0.0, 0.0, 0.02, 0.0, 0.0, 0.0, 0.02)",0.0,0.0,0.0,"(0.0, 0.0, 0.0, 0.0, 0.0, 0.0, 0.0, 0.0, 0.0)",0.0,0.0,0.0,"(0.0, 0.0, 0.0, 0.0, 0.0, 0.0, 0.0, 0.0, 0.0)"
2018/12/16/17:22:09.866173,104030,1545002529,865950107,imu_link,-0.0406943413456,-0.0352153795502,0.695845848625,0.716172048168,"(0.02, 0.0, 0.0, 0.0, 0.02, 0.0, 0.0, 0.0, 0.02)",0.0,0.0,0.0,"(0.0, 0.0, 0.0, 0.0, 0.0, 0.0, 0.0, 0.0, 0.0)",0.0,0.0,0.0,"(0.0, 0.0, 0.0, 0.0, 0.0, 0.0, 0.0, 0.0, 0.0)"
2018/12/16/17:22:09.875894,104031,1545002529,875670909,imu_link,-0.0406635600578,-0.0351949003793,0.695842867001,0.716177700235,"(0.02, 0.0, 0.0, 0.0, 0.02, 0.0, 0.0, 0.0, 0.02)",0.0,0.0,0.0,"(0.0, 0.0, 0.0, 0.0, 0.0, 0.0, 0.0, 0.0, 0.0)",0.0,0.0,0.0,"(0.0, 0.0, 0.0, 0.0, 0.0, 0.0, 0.0, 0.0, 0.0)"
2018/12/16/17:22:09.885912,104032,1545002529,885729074,imu_link,-0.0406746974342,-0.0351513853917,0.69584100697,0.716181012114,"(0.02, 0.0, 0.0, 0.0, 0.02, 0.0, 0.0, 0.0, 0.02)",0.0,0.0,0.0,"(0.0, 0.0, 0.0, 0.0, 0.0, 0.0, 0.0, 0.0, 0.0)",0.0,0.0,0.0,"(0.0, 0.0, 0.0, 0.0, 0.0, 0.0, 0.0, 0.0, 0.0)"
2018/12/16/17:22:09.895939,104033,1545002529,895719051,imu_link,-0.0407449875687,-0.0351279130493,0.695855877378,0.716163719852,"(0.02, 0.0, 0.0, 0.0, 0.02, 0.0, 0.0, 0.0, 0.02)",0.0,0.0,0.0,"(0.0, 0.0, 0.0, 0.0, 0.0, 0.0, 0.0, 0.0, 0.0)",0.0,0.0,0.0,"(0.0, 0.0, 0.0, 0.0, 0.0, 0.0, 0.0, 0.0, 0.0)"
2018/12/16/17:22:09.906073,104034,1545002529,905805110,imu_link,-0.040690108617,-0.0351627602248,0.695848035935,0.716172748881,"(0.02, 0.0, 0.0, 0.0, 0.02, 0.0, 0.0, 0.0, 0.02)",0.0,0.0,0.0,"(0.0, 0.0, 0.0, 0.0, 0.0, 0.0, 0.0, 0.0, 0.0)",0.0,0.0,0.0,"(0.0, 0.0, 0.0, 0.0, 0.0, 0.0, 0.0, 0.0, 0.0)"
2018/12/16/17:22:09.915940,104035,1545002529,915723085,imu_link,-0.0406536135631,-0.0351394985884,0.69583945464,0.716184300798,"(0.02, 0.0, 0.0, 0.0, 0.02, 0.0, 0.0, 0.0, 0.02)",0.0,0.0,0.0,"(0.0, 0.0, 0.0, 0.0, 0.0, 0.0, 0.0, 0.0, 0.0)",0.0,0.0,0.0,"(0.0, 0.0, 0.0, 0.0, 0.0, 0.0, 0.0, 0.0, 0.0)"
2018/12/16/17:22:09.925955,104036,1545002529,925725936,imu_link,-0.0407141890865,-0.0350715820334,0.695836628732,0.716186934435,"(0.02, 0.0, 0.0, 0.0, 0.02, 0.0, 0.0, 0.0, 0.02)",0.0,0.0,0.0,"(0.0, 0.0, 0.0, 0.0, 0.0, 0.0, 0.0, 0.0, 0.0)",0.0,0.0,0.0,"(0.0, 0.0, 0.0, 0.0, 0.0, 0.0, 0.0, 0.0, 0.0)"
2018/12/16/17:22:09.935916,104037,1545002529,935748100,imu_link,-0.0407105658538,-0.0350719893505,0.695819488006,0.716203773727,"(0.02, 0.0, 0.0, 0.0, 0.02, 0.0, 0.0, 0.0, 0.02)",0.0,0.0,0.0,"(0.0, 0.0, 0.0, 0.0, 0.0, 0.0, 0.0, 0.0, 0.0)",0.0,0.0,0.0,"(0.0, 0.0, 0.0, 0.0, 0.0, 0.0, 0.0, 0.0, 0.0)"
2018/12/16/17:22:09.945855,104038,1545002529,945686101,imu_link,-0.040633013776,-0.0351457590523,0.695811782421,0.71621204769,"(0.02, 0.0, 0.0, 0.0, 0.02, 0.0, 0.0, 0.0, 0.02)",0.0,0.0,0.0,"(0.0, 0.0, 0.0, 0.0, 0.0, 0.0, 0.0, 0.0, 0.0)",0.0,0.0,0.0,"(0.0, 0.0, 0.0, 0.0, 0.0, 0.0, 0.0, 0.0, 0.0)"
2018/12/16/17:22:09.955910,104039,1545002529,955705881,imu_link,-0.040629437954,-0.0351145683742,0.695796765453,0.716228369338,"(0.02, 0.0, 0.0, 0.0, 0.02, 0.0, 0.0, 0.0, 0.02)",0.0,0.0,0.0,"(0.0, 0.0, 0.0, 0.0, 0.0, 0.0, 0.0, 0.0, 0.0)",0.0,0.0,0.0,"(0.0, 0.0, 0.0, 0.0, 0.0, 0.0, 0.0, 0.0, 0.0)"
2018/12/16/17:22:09.966052,104040,1545002529,965822935,imu_link,-0.0406395940267,-0.0350623677566,0.69577663987,0.716249901344,"(0.02, 0.0, 0.0, 0.0, 0.02, 0.0, 0.0, 0.0, 0.02)",0.0,0.0,0.0,"(0.0, 0.0, 0.0, 0.0, 0.0, 0.0, 0.0, 0.0, 0.0)",0.0,0.0,0.0,"(0.0, 0.0, 0.0, 0.0, 0.0, 0.0, 0.0, 0.0, 0.0)"
2018/12/16/17:22:09.976017,104041,1545002529,975816965,imu_link,-0.0406054155913,-0.0350611238871,0.695777225567,0.716251331726,"(0.02, 0.0, 0.0, 0.0, 0.02, 0.0, 0.0, 0.0, 0.02)",0.0,0.0,0.0,"(0.0, 0.0, 0.0, 0.0, 0.0, 0.0, 0.0, 0.0, 0.0)",0.0,0.0,0.0,"(0.0, 0.0, 0.0, 0.0, 0.0, 0.0, 0.0, 0.0, 0.0)"
2018/12/16/17:22:09.985926,104042,1545002529,985723018,imu_link,-0.0405710844449,-0.0350874537986,0.695774362259,0.71625476928,"(0.02, 0.0, 0.0, 0.0, 0.02, 0.0, 0.0, 0.0, 0.02)",0.0,0.0,0.0,"(0.0, 0.0, 0.0, 0.0, 0.0, 0.0, 0.0, 0.0, 0.0)",0.0,0.0,0.0,"(0.0, 0.0, 0.0, 0.0, 0.0, 0.0, 0.0, 0.0, 0.0)"
2018/12/16/17:22:09.995914,104043,1545002529,995740890,imu_link,-0.0405538076418,-0.0350968215583,0.695769965738,0.716259559503,"(0.02, 0.0, 0.0, 0.0, 0.02, 0.0, 0.0, 0.0, 0.02)",0.0,0.0,0.0,"(0.0, 0.0, 0.0, 0.0, 0.0, 0.0, 0.0, 0.0, 0.0)",0.0,0.0,0.0,"(0.0, 0.0, 0.0, 0.0, 0.0, 0.0, 0.0, 0.0, 0.0)"
2018/12/16/17:22:10.005995,104044,1545002530,5763053,imu_link,-0.0405634087666,-0.0350296674174,0.695754131535,0.716277684088,"(0.02, 0.0, 0.0, 0.0, 0.02, 0.0, 0.0, 0.0, 0.02)",0.0,0.0,0.0,"(0.0, 0.0, 0.0, 0.0, 0.0, 0.0, 0.0, 0.0, 0.0)",0.0,0.0,0.0,"(0.0, 0.0, 0.0, 0.0, 0.0, 0.0, 0.0, 0.0, 0.0)"
2018/12/16/17:22:10.016809,104045,1545002530,15918970,imu_link,-0.0405459475563,-0.0350096642814,0.695751982162,0.716281738467,"(0.02, 0.0, 0.0, 0.0, 0.02, 0.0, 0.0, 0.0, 0.02)",0.0,0.0,0.0,"(0.0, 0.0, 0.0, 0.0, 0.0, 0.0, 0.0, 0.0, 0.0)",0.0,0.0,0.0,"(0.0, 0.0, 0.0, 0.0, 0.0, 0.0, 0.0, 0.0, 0.0)"
2018/12/16/17:22:10.026142,104046,1545002530,25743007,imu_link,-0.0405028344483,-0.0350431588082,0.695735175717,0.716298864087,"(0.02, 0.0, 0.0, 0.0, 0.02, 0.0, 0.0, 0.0, 0.02)",0.0,0.0,0.0,"(0.0, 0.0, 0.0, 0.0, 0.0, 0.0, 0.0, 0.0, 0.0)",0.0,0.0,0.0,"(0.0, 0.0, 0.0, 0.0, 0.0, 0.0, 0.0, 0.0, 0.0)"
2018/12/16/17:22:10.035910,104047,1545002530,35748004,imu_link,-0.0404871948408,-0.0350419490241,0.695720026268,0.71631452164,"(0.02, 0.0, 0.0, 0.0, 0.02, 0.0, 0.0, 0.0, 0.02)",0.0,0.0,0.0,"(0.0, 0.0, 0.0, 0.0, 0.0, 0.0, 0.0, 0.0, 0.0)",0.0,0.0,0.0,"(0.0, 0.0, 0.0, 0.0, 0.0, 0.0, 0.0, 0.0, 0.0)"
2018/12/16/17:22:10.046066,104048,1545002530,45845031,imu_link,-0.0404906065891,-0.0349730930758,0.695721393363,0.716316366109,"(0.02, 0.0, 0.0, 0.0, 0.02, 0.0, 0.0, 0.0, 0.02)",0.0,0.0,0.0,"(0.0, 0.0, 0.0, 0.0, 0.0, 0.0, 0.0, 0.0, 0.0)",0.0,0.0,0.0,"(0.0, 0.0, 0.0, 0.0, 0.0, 0.0, 0.0, 0.0, 0.0)"
2018/12/16/17:22:10.055995,104049,1545002530,55753946,imu_link,-0.0404919212908,-0.0349616245429,0.695705422451,0.716332363007,"(0.02, 0.0, 0.0, 0.0, 0.02, 0.0, 0.0, 0.0, 0.02)",0.0,0.0,0.0,"(0.0, 0.0, 0.0, 0.0, 0.0, 0.0, 0.0, 0.0, 0.0)",0.0,0.0,0.0,"(0.0, 0.0, 0.0, 0.0, 0.0, 0.0, 0.0, 0.0, 0.0)"
2018/12/16/17:22:10.066160,104050,1545002530,66003084,imu_link,-0.0404614172581,-0.0349977332681,0.695692217351,0.716345148023,"(0.02, 0.0, 0.0, 0.0, 0.02, 0.0, 0.0, 0.0, 0.02)",0.0,0.0,0.0,"(0.0, 0.0, 0.0, 0.0, 0.0, 0.0, 0.0, 0.0, 0.0)",0.0,0.0,0.0,"(0.0, 0.0, 0.0, 0.0, 0.0, 0.0, 0.0, 0.0, 0.0)"
2018/12/16/17:22:10.075999,104051,1545002530,75773000,imu_link,-0.0404593626093,-0.0349726517521,0.695686975996,0.71635157921,"(0.02, 0.0, 0.0, 0.0, 0.02, 0.0, 0.0, 0.0, 0.02)",0.0,0.0,0.0,"(0.0, 0.0, 0.0, 0.0, 0.0, 0.0, 0.0, 0.0, 0.0)",0.0,0.0,0.0,"(0.0, 0.0, 0.0, 0.0, 0.0, 0.0, 0.0, 0.0, 0.0)"
2018/12/16/17:22:10.086027,104052,1545002530,85777997,imu_link,-0.0404554319086,-0.0349369337562,0.695672989682,0.71636712663,"(0.02, 0.0, 0.0, 0.0, 0.02, 0.0, 0.0, 0.0, 0.02)",0.0,0.0,0.0,"(0.0, 0.0, 0.0, 0.0, 0.0, 0.0, 0.0, 0.0, 0.0)",0.0,0.0,0.0,"(0.0, 0.0, 0.0, 0.0, 0.0, 0.0, 0.0, 0.0, 0.0)"
2018/12/16/17:22:10.096037,104053,1545002530,95736026,imu_link,-0.0404517848359,-0.0349214432298,0.69566310226,0.716377689533,"(0.02, 0.0, 0.0, 0.0, 0.02, 0.0, 0.0, 0.0, 0.02)",0.0,0.0,0.0,"(0.0, 0.0, 0.0, 0.0, 0.0, 0.0, 0.0, 0.0, 0.0)",0.0,0.0,0.0,"(0.0, 0.0, 0.0, 0.0, 0.0, 0.0, 0.0, 0.0, 0.0)"
2018/12/16/17:22:10.106026,104054,1545002530,105845928,imu_link,-0.040447150101,-0.0349549123389,0.695650751213,0.716388312641,"(0.02, 0.0, 0.0, 0.0, 0.02, 0.0, 0.0, 0.0, 0.02)",0.0,0.0,0.0,"(0.0, 0.0, 0.0, 0.0, 0.0, 0.0, 0.0, 0.0, 0.0)",0.0,0.0,0.0,"(0.0, 0.0, 0.0, 0.0, 0.0, 0.0, 0.0, 0.0, 0.0)"
2018/12/16/17:22:10.116282,104055,1545002530,116043090,imu_link,-0.0404386398849,-0.0349636341039,0.69564055345,0.716398269882,"(0.02, 0.0, 0.0, 0.0, 0.02, 0.0, 0.0, 0.0, 0.02)",0.0,0.0,0.0,"(0.0, 0.0, 0.0, 0.0, 0.0, 0.0, 0.0, 0.0, 0.0)",0.0,0.0,0.0,"(0.0, 0.0, 0.0, 0.0, 0.0, 0.0, 0.0, 0.0, 0.0)"
2018/12/16/17:22:10.126029,104056,1545002530,125767946,imu_link,-0.0404090283965,-0.0349539468941,0.695638359825,0.716402543519,"(0.02, 0.0, 0.0, 0.0, 0.02, 0.0, 0.0, 0.0, 0.02)",0.0,0.0,0.0,"(0.0, 0.0, 0.0, 0.0, 0.0, 0.0, 0.0, 0.0, 0.0)",0.0,0.0,0.0,"(0.0, 0.0, 0.0, 0.0, 0.0, 0.0, 0.0, 0.0, 0.0)"
2018/12/16/17:22:10.135928,104057,1545002530,135704040,imu_link,-0.0404050240859,-0.0349231621503,0.695633164059,0.716409315849,"(0.02, 0.0, 0.0, 0.0, 0.02, 0.0, 0.0, 0.0, 0.02)",0.0,0.0,0.0,"(0.0, 0.0, 0.0, 0.0, 0.0, 0.0, 0.0, 0.0, 0.0)",0.0,0.0,0.0,"(0.0, 0.0, 0.0, 0.0, 0.0, 0.0, 0.0, 0.0, 0.0)"
2018/12/16/17:22:10.145936,104058,1545002530,145742893,imu_link,-0.0404175399431,-0.034940617405,0.695640083833,0.716401039561,"(0.02, 0.0, 0.0, 0.0, 0.02, 0.0, 0.0, 0.0, 0.02)",0.0,0.0,0.0,"(0.0, 0.0, 0.0, 0.0, 0.0, 0.0, 0.0, 0.0, 0.0)",0.0,0.0,0.0,"(0.0, 0.0, 0.0, 0.0, 0.0, 0.0, 0.0, 0.0, 0.0)"
2018/12/16/17:22:10.156006,104059,1545002530,155796051,imu_link,-0.0404140573983,-0.0349618728241,0.695639826725,0.716400448693,"(0.02, 0.0, 0.0, 0.0, 0.02, 0.0, 0.0, 0.0, 0.02)",0.0,0.0,0.0,"(0.0, 0.0, 0.0, 0.0, 0.0, 0.0, 0.0, 0.0, 0.0)",0.0,0.0,0.0,"(0.0, 0.0, 0.0, 0.0, 0.0, 0.0, 0.0, 0.0, 0.0)"
2018/12/16/17:22:10.166129,104060,1545002530,165874958,imu_link,-0.0404108693681,-0.0349626018639,0.695636441408,0.716403880149,"(0.02, 0.0, 0.0, 0.0, 0.02, 0.0, 0.0, 0.0, 0.02)",0.0,0.0,0.0,"(0.0, 0.0, 0.0, 0.0, 0.0, 0.0, 0.0, 0.0, 0.0)",0.0,0.0,0.0,"(0.0, 0.0, 0.0, 0.0, 0.0, 0.0, 0.0, 0.0, 0.0)"
2018/12/16/17:22:10.176029,104061,1545002530,175771951,imu_link,-0.0404143997999,-0.0349759836849,0.695625435724,0.716413714293,"(0.02, 0.0, 0.0, 0.0, 0.02, 0.0, 0.0, 0.0, 0.02)",0.0,0.0,0.0,"(0.0, 0.0, 0.0, 0.0, 0.0, 0.0, 0.0, 0.0, 0.0)",0.0,0.0,0.0,"(0.0, 0.0, 0.0, 0.0, 0.0, 0.0, 0.0, 0.0, 0.0)"
2018/12/16/17:22:10.186055,104062,1545002530,185803890,imu_link,-0.0404305946717,-0.0349965950989,0.695610048286,0.716426734614,"(0.02, 0.0, 0.0, 0.0, 0.02, 0.0, 0.0, 0.0, 0.02)",0.0,0.0,0.0,"(0.0, 0.0, 0.0, 0.0, 0.0, 0.0, 0.0, 0.0, 0.0)",0.0,0.0,0.0,"(0.0, 0.0, 0.0, 0.0, 0.0, 0.0, 0.0, 0.0, 0.0)"
2018/12/16/17:22:10.195998,104063,1545002530,195760011,imu_link,-0.0404070559209,-0.0350302061332,0.695605672443,0.716430668631,"(0.02, 0.0, 0.0, 0.0, 0.02, 0.0, 0.0, 0.0, 0.02)",0.0,0.0,0.0,"(0.0, 0.0, 0.0, 0.0, 0.0, 0.0, 0.0, 0.0, 0.0)",0.0,0.0,0.0,"(0.0, 0.0, 0.0, 0.0, 0.0, 0.0, 0.0, 0.0, 0.0)"
2018/12/16/17:22:10.206009,104064,1545002530,205773115,imu_link,-0.0403754302119,-0.0350726452698,0.695599509035,0.716436359504,"(0.02, 0.0, 0.0, 0.0, 0.02, 0.0, 0.0, 0.0, 0.02)",0.0,0.0,0.0,"(0.0, 0.0, 0.0, 0.0, 0.0, 0.0, 0.0, 0.0, 0.0)",0.0,0.0,0.0,"(0.0, 0.0, 0.0, 0.0, 0.0, 0.0, 0.0, 0.0, 0.0)"
2018/12/16/17:22:10.216120,104065,1545002530,215890884,imu_link,-0.0403639942351,-0.0350879688542,0.695601651812,0.716434173116,"(0.02, 0.0, 0.0, 0.0, 0.02, 0.0, 0.0, 0.0, 0.02)",0.0,0.0,0.0,"(0.0, 0.0, 0.0, 0.0, 0.0, 0.0, 0.0, 0.0, 0.0)",0.0,0.0,0.0,"(0.0, 0.0, 0.0, 0.0, 0.0, 0.0, 0.0, 0.0, 0.0)"
2018/12/16/17:22:10.226055,104066,1545002530,225848913,imu_link,-0.0403605561387,-0.0351309118037,0.695600484711,0.716433395518,"(0.02, 0.0, 0.0, 0.0, 0.02, 0.0, 0.0, 0.0, 0.02)",0.0,0.0,0.0,"(0.0, 0.0, 0.0, 0.0, 0.0, 0.0, 0.0, 0.0, 0.0)",0.0,0.0,0.0,"(0.0, 0.0, 0.0, 0.0, 0.0, 0.0, 0.0, 0.0, 0.0)"
2018/12/16/17:22:10.235995,104067,1545002530,235764980,imu_link,-0.0402968459536,-0.0352166508233,0.695591065618,0.716441917495,"(0.02, 0.0, 0.0, 0.0, 0.02, 0.0, 0.0, 0.0, 0.02)",0.0,0.0,0.0,"(0.0, 0.0, 0.0, 0.0, 0.0, 0.0, 0.0, 0.0, 0.0)",0.0,0.0,0.0,"(0.0, 0.0, 0.0, 0.0, 0.0, 0.0, 0.0, 0.0, 0.0)"
2018/12/16/17:22:10.245932,104068,1545002530,245747089,imu_link,-0.0402552097103,-0.0352642987772,0.69557883759,0.716453786382,"(0.02, 0.0, 0.0, 0.0, 0.02, 0.0, 0.0, 0.0, 0.02)",0.0,0.0,0.0,"(0.0, 0.0, 0.0, 0.0, 0.0, 0.0, 0.0, 0.0, 0.0)",0.0,0.0,0.0,"(0.0, 0.0, 0.0, 0.0, 0.0, 0.0, 0.0, 0.0, 0.0)"
2018/12/16/17:22:10.255997,104069,1545002530,255763053,imu_link,-0.0402733569556,-0.0352449013355,0.695564180987,0.716467950279,"(0.02, 0.0, 0.0, 0.0, 0.02, 0.0, 0.0, 0.0, 0.02)",0.0,0.0,0.0,"(0.0, 0.0, 0.0, 0.0, 0.0, 0.0, 0.0, 0.0, 0.0)",0.0,0.0,0.0,"(0.0, 0.0, 0.0, 0.0, 0.0, 0.0, 0.0, 0.0, 0.0)"
2018/12/16/17:22:10.266209,104070,1545002530,265964031,imu_link,-0.0402528933656,-0.0352818866003,0.695550867694,0.716480204545,"(0.02, 0.0, 0.0, 0.0, 0.02, 0.0, 0.0, 0.0, 0.02)",0.0,0.0,0.0,"(0.0, 0.0, 0.0, 0.0, 0.0, 0.0, 0.0, 0.0, 0.0)",0.0,0.0,0.0,"(0.0, 0.0, 0.0, 0.0, 0.0, 0.0, 0.0, 0.0, 0.0)"
2018/12/16/17:22:10.276012,104071,1545002530,275782108,imu_link,-0.0402410881758,-0.0352957514036,0.695549540232,0.716481473478,"(0.02, 0.0, 0.0, 0.0, 0.02, 0.0, 0.0, 0.0, 0.02)",0.0,0.0,0.0,"(0.0, 0.0, 0.0, 0.0, 0.0, 0.0, 0.0, 0.0, 0.0)",0.0,0.0,0.0,"(0.0, 0.0, 0.0, 0.0, 0.0, 0.0, 0.0, 0.0, 0.0)"
2018/12/16/17:22:10.286211,104072,1545002530,285991907,imu_link,-0.0402555667539,-0.0353121821184,0.695553489954,0.716476016174,"(0.02, 0.0, 0.0, 0.0, 0.02, 0.0, 0.0, 0.0, 0.02)",0.0,0.0,0.0,"(0.0, 0.0, 0.0, 0.0, 0.0, 0.0, 0.0, 0.0, 0.0)",0.0,0.0,0.0,"(0.0, 0.0, 0.0, 0.0, 0.0, 0.0, 0.0, 0.0, 0.0)"
2018/12/16/17:22:10.296294,104073,1545002530,295773983,imu_link,-0.040271152794,-0.0352883327652,0.695538581795,0.716490787839,"(0.02, 0.0, 0.0, 0.0, 0.02, 0.0, 0.0, 0.0, 0.02)",0.0,0.0,0.0,"(0.0, 0.0, 0.0, 0.0, 0.0, 0.0, 0.0, 0.0, 0.0)",0.0,0.0,0.0,"(0.0, 0.0, 0.0, 0.0, 0.0, 0.0, 0.0, 0.0, 0.0)"
2018/12/16/17:22:10.306051,104074,1545002530,305819988,imu_link,-0.0402619114035,-0.0353237884188,0.695537208869,0.716490892853,"(0.02, 0.0, 0.0, 0.0, 0.02, 0.0, 0.0, 0.0, 0.02)",0.0,0.0,0.0,"(0.0, 0.0, 0.0, 0.0, 0.0, 0.0, 0.0, 0.0, 0.0)",0.0,0.0,0.0,"(0.0, 0.0, 0.0, 0.0, 0.0, 0.0, 0.0, 0.0, 0.0)"
2018/12/16/17:22:10.316156,104075,1545002530,315870046,imu_link,-0.0402681423987,-0.0353298038899,0.695529488126,0.716497740968,"(0.02, 0.0, 0.0, 0.0, 0.02, 0.0, 0.0, 0.0, 0.02)",0.0,0.0,0.0,"(0.0, 0.0, 0.0, 0.0, 0.0, 0.0, 0.0, 0.0, 0.0)",0.0,0.0,0.0,"(0.0, 0.0, 0.0, 0.0, 0.0, 0.0, 0.0, 0.0, 0.0)"
2018/12/16/17:22:10.326092,104076,1545002530,325882911,imu_link,-0.0402266339319,-0.0353612779008,0.695519510611,0.716508205331,"(0.02, 0.0, 0.0, 0.0, 0.02, 0.0, 0.0, 0.0, 0.02)",0.0,0.0,0.0,"(0.0, 0.0, 0.0, 0.0, 0.0, 0.0, 0.0, 0.0, 0.0)",0.0,0.0,0.0,"(0.0, 0.0, 0.0, 0.0, 0.0, 0.0, 0.0, 0.0, 0.0)"
2018/12/16/17:22:10.336075,104077,1545002530,335829019,imu_link,-0.040237187475,-0.035330387566,0.695518213364,0.716510395834,"(0.02, 0.0, 0.0, 0.0, 0.02, 0.0, 0.0, 0.0, 0.02)",0.0,0.0,0.0,"(0.0, 0.0, 0.0, 0.0, 0.0, 0.0, 0.0, 0.0, 0.0)",0.0,0.0,0.0,"(0.0, 0.0, 0.0, 0.0, 0.0, 0.0, 0.0, 0.0, 0.0)"
2018/12/16/17:22:10.346025,104078,1545002530,345798969,imu_link,-0.0402380286573,-0.0353006815831,0.695514509563,0.71651540801,"(0.02, 0.0, 0.0, 0.0, 0.02, 0.0, 0.0, 0.0, 0.02)",0.0,0.0,0.0,"(0.0, 0.0, 0.0, 0.0, 0.0, 0.0, 0.0, 0.0, 0.0)",0.0,0.0,0.0,"(0.0, 0.0, 0.0, 0.0, 0.0, 0.0, 0.0, 0.0, 0.0)"
2018/12/16/17:22:10.355970,104079,1545002530,355784893,imu_link,-0.0401968012044,-0.0353174172909,0.695517195493,0.716514290145,"(0.02, 0.0, 0.0, 0.0, 0.02, 0.0, 0.0, 0.0, 0.02)",0.0,0.0,0.0,"(0.0, 0.0, 0.0, 0.0, 0.0, 0.0, 0.0, 0.0, 0.0)",0.0,0.0,0.0,"(0.0, 0.0, 0.0, 0.0, 0.0, 0.0, 0.0, 0.0, 0.0)"
2018/12/16/17:22:10.366163,104080,1545002530,365926980,imu_link,-0.0401622338132,-0.0353301261029,0.695519751613,0.716513120802,"(0.02, 0.0, 0.0, 0.0, 0.02, 0.0, 0.0, 0.0, 0.02)",0.0,0.0,0.0,"(0.0, 0.0, 0.0, 0.0, 0.0, 0.0, 0.0, 0.0, 0.0)",0.0,0.0,0.0,"(0.0, 0.0, 0.0, 0.0, 0.0, 0.0, 0.0, 0.0, 0.0)"
2018/12/16/17:22:10.376033,104081,1545002530,375824928,imu_link,-0.0401625510204,-0.0352928100114,0.695524519661,0.716510313678,"(0.02, 0.0, 0.0, 0.0, 0.02, 0.0, 0.0, 0.0, 0.02)",0.0,0.0,0.0,"(0.0, 0.0, 0.0, 0.0, 0.0, 0.0, 0.0, 0.0, 0.0)",0.0,0.0,0.0,"(0.0, 0.0, 0.0, 0.0, 0.0, 0.0, 0.0, 0.0, 0.0)"
2018/12/16/17:22:10.386134,104082,1545002530,385942935,imu_link,-0.0401665904622,-0.0352697713994,0.695526838713,0.716508970541,"(0.02, 0.0, 0.0, 0.0, 0.02, 0.0, 0.0, 0.0, 0.02)",0.0,0.0,0.0,"(0.0, 0.0, 0.0, 0.0, 0.0, 0.0, 0.0, 0.0, 0.0)",0.0,0.0,0.0,"(0.0, 0.0, 0.0, 0.0, 0.0, 0.0, 0.0, 0.0, 0.0)"
2018/12/16/17:22:10.396079,104083,1545002530,395803928,imu_link,-0.0401473615049,-0.0352807096709,0.695522406422,0.716513812186,"(0.02, 0.0, 0.0, 0.0, 0.02, 0.0, 0.0, 0.0, 0.02)",0.0,0.0,0.0,"(0.0, 0.0, 0.0, 0.0, 0.0, 0.0, 0.0, 0.0, 0.0)",0.0,0.0,0.0,"(0.0, 0.0, 0.0, 0.0, 0.0, 0.0, 0.0, 0.0, 0.0)"
2018/12/16/17:22:10.406024,104084,1545002530,405751943,imu_link,-0.0401247252085,-0.0352966570953,0.695524368971,0.716512389699,"(0.02, 0.0, 0.0, 0.0, 0.02, 0.0, 0.0, 0.0, 0.02)",0.0,0.0,0.0,"(0.0, 0.0, 0.0, 0.0, 0.0, 0.0, 0.0, 0.0, 0.0)",0.0,0.0,0.0,"(0.0, 0.0, 0.0, 0.0, 0.0, 0.0, 0.0, 0.0, 0.0)"
2018/12/16/17:22:10.416075,104085,1545002530,415839910,imu_link,-0.040110921452,-0.0352992742141,0.695522225543,0.716515114283,"(0.02, 0.0, 0.0, 0.0, 0.02, 0.0, 0.0, 0.0, 0.02)",0.0,0.0,0.0,"(0.0, 0.0, 0.0, 0.0, 0.0, 0.0, 0.0, 0.0, 0.0)",0.0,0.0,0.0,"(0.0, 0.0, 0.0, 0.0, 0.0, 0.0, 0.0, 0.0, 0.0)"
2018/12/16/17:22:10.426120,104086,1545002530,425893068,imu_link,-0.0400901069939,-0.0352529674691,0.695523284583,0.716517530985,"(0.02, 0.0, 0.0, 0.0, 0.02, 0.0, 0.0, 0.0, 0.02)",0.0,0.0,0.0,"(0.0, 0.0, 0.0, 0.0, 0.0, 0.0, 0.0, 0.0, 0.0)",0.0,0.0,0.0,"(0.0, 0.0, 0.0, 0.0, 0.0, 0.0, 0.0, 0.0, 0.0)"
2018/12/16/17:22:10.436040,104087,1545002530,435820102,imu_link,-0.0400938770874,-0.0352735204977,0.695516930815,0.716522476076,"(0.02, 0.0, 0.0, 0.0, 0.02, 0.0, 0.0, 0.0, 0.02)",0.0,0.0,0.0,"(0.0, 0.0, 0.0, 0.0, 0.0, 0.0, 0.0, 0.0, 0.0)",0.0,0.0,0.0,"(0.0, 0.0, 0.0, 0.0, 0.0, 0.0, 0.0, 0.0, 0.0)"
2018/12/16/17:22:10.446014,104088,1545002530,445806980,imu_link,-0.0400629715788,-0.0353120791035,0.695515064404,0.716524117225,"(0.02, 0.0, 0.0, 0.0, 0.02, 0.0, 0.0, 0.0, 0.02)",0.0,0.0,0.0,"(0.0, 0.0, 0.0, 0.0, 0.0, 0.0, 0.0, 0.0, 0.0)",0.0,0.0,0.0,"(0.0, 0.0, 0.0, 0.0, 0.0, 0.0, 0.0, 0.0, 0.0)"
2018/12/16/17:22:10.455934,104089,1545002530,455765962,imu_link,-0.0400354302033,-0.0353437654082,0.695517708201,0.716521528046,"(0.02, 0.0, 0.0, 0.0, 0.02, 0.0, 0.0, 0.0, 0.02)",0.0,0.0,0.0,"(0.0, 0.0, 0.0, 0.0, 0.0, 0.0, 0.0, 0.0, 0.0)",0.0,0.0,0.0,"(0.0, 0.0, 0.0, 0.0, 0.0, 0.0, 0.0, 0.0, 0.0)"
2018/12/16/17:22:10.466213,104090,1545002530,465955018,imu_link,-0.0400447974499,-0.0353052859013,0.695531148026,0.716509855557,"(0.02, 0.0, 0.0, 0.0, 0.02, 0.0, 0.0, 0.0, 0.02)",0.0,0.0,0.0,"(0.0, 0.0, 0.0, 0.0, 0.0, 0.0, 0.0, 0.0, 0.0)",0.0,0.0,0.0,"(0.0, 0.0, 0.0, 0.0, 0.0, 0.0, 0.0, 0.0, 0.0)"
2018/12/16/17:22:10.475965,104091,1545002530,475722074,imu_link,-0.0400280260683,-0.0352809724977,0.695534439515,0.716508795171,"(0.02, 0.0, 0.0, 0.0, 0.02, 0.0, 0.0, 0.0, 0.02)",0.0,0.0,0.0,"(0.0, 0.0, 0.0, 0.0, 0.0, 0.0, 0.0, 0.0, 0.0)",0.0,0.0,0.0,"(0.0, 0.0, 0.0, 0.0, 0.0, 0.0, 0.0, 0.0, 0.0)"
2018/12/16/17:22:10.486106,104092,1545002530,485867023,imu_link,-0.0399534451065,-0.0353288175391,0.695535350358,0.716509716108,"(0.02, 0.0, 0.0, 0.0, 0.02, 0.0, 0.0, 0.0, 0.02)",0.0,0.0,0.0,"(0.0, 0.0, 0.0, 0.0, 0.0, 0.0, 0.0, 0.0, 0.0)",0.0,0.0,0.0,"(0.0, 0.0, 0.0, 0.0, 0.0, 0.0, 0.0, 0.0, 0.0)"
2018/12/16/17:22:10.496192,104093,1545002530,495793104,imu_link,-0.0399292793786,-0.0353534267454,0.695537779952,0.716507490907,"(0.02, 0.0, 0.0, 0.0, 0.02, 0.0, 0.0, 0.0, 0.02)",0.0,0.0,0.0,"(0.0, 0.0, 0.0, 0.0, 0.0, 0.0, 0.0, 0.0, 0.0)",0.0,0.0,0.0,"(0.0, 0.0, 0.0, 0.0, 0.0, 0.0, 0.0, 0.0, 0.0)"
2018/12/16/17:22:10.506155,104094,1545002530,505987882,imu_link,-0.0399565218901,-0.0353200357728,0.695536754064,0.716508614866,"(0.02, 0.0, 0.0, 0.0, 0.02, 0.0, 0.0, 0.0, 0.02)",0.0,0.0,0.0,"(0.0, 0.0, 0.0, 0.0, 0.0, 0.0, 0.0, 0.0, 0.0)",0.0,0.0,0.0,"(0.0, 0.0, 0.0, 0.0, 0.0, 0.0, 0.0, 0.0, 0.0)"
2018/12/16/17:22:10.516259,104095,1545002530,516045093,imu_link,-0.0398946388556,-0.0353449083387,0.695531130657,0.716516295371,"(0.02, 0.0, 0.0, 0.0, 0.02, 0.0, 0.0, 0.0, 0.02)",0.0,0.0,0.0,"(0.0, 0.0, 0.0, 0.0, 0.0, 0.0, 0.0, 0.0, 0.0)",0.0,0.0,0.0,"(0.0, 0.0, 0.0, 0.0, 0.0, 0.0, 0.0, 0.0, 0.0)"
2018/12/16/17:22:10.526030,104096,1545002530,525774002,imu_link,-0.0398900918803,-0.0354045858873,0.695522206273,0.716522265145,"(0.02, 0.0, 0.0, 0.0, 0.02, 0.0, 0.0, 0.0, 0.02)",0.0,0.0,0.0,"(0.0, 0.0, 0.0, 0.0, 0.0, 0.0, 0.0, 0.0, 0.0)",0.0,0.0,0.0,"(0.0, 0.0, 0.0, 0.0, 0.0, 0.0, 0.0, 0.0, 0.0)"
2018/12/16/17:22:10.536000,104097,1545002530,535806894,imu_link,-0.0398488264756,-0.0353870623022,0.695515298308,0.716532132336,"(0.02, 0.0, 0.0, 0.0, 0.02, 0.0, 0.0, 0.0, 0.02)",0.0,0.0,0.0,"(0.0, 0.0, 0.0, 0.0, 0.0, 0.0, 0.0, 0.0, 0.0)",0.0,0.0,0.0,"(0.0, 0.0, 0.0, 0.0, 0.0, 0.0, 0.0, 0.0, 0.0)"
2018/12/16/17:22:10.546041,104098,1545002530,545784950,imu_link,-0.0398043410646,-0.0353516427552,0.695520591348,0.716531215508,"(0.02, 0.0, 0.0, 0.0, 0.02, 0.0, 0.0, 0.0, 0.02)",0.0,0.0,0.0,"(0.0, 0.0, 0.0, 0.0, 0.0, 0.0, 0.0, 0.0, 0.0)",0.0,0.0,0.0,"(0.0, 0.0, 0.0, 0.0, 0.0, 0.0, 0.0, 0.0, 0.0)"
2018/12/16/17:22:10.555958,104099,1545002530,555768966,imu_link,-0.0398269178252,-0.0353334425063,0.695526111848,0.716525500032,"(0.02, 0.0, 0.0, 0.0, 0.02, 0.0, 0.0, 0.0, 0.02)",0.0,0.0,0.0,"(0.0, 0.0, 0.0, 0.0, 0.0, 0.0, 0.0, 0.0, 0.0)",0.0,0.0,0.0,"(0.0, 0.0, 0.0, 0.0, 0.0, 0.0, 0.0, 0.0, 0.0)"
2018/12/16/17:22:10.566307,104100,1545002530,566126108,imu_link,-0.039801912167,-0.0354016301032,0.695520867648,0.716528614251,"(0.02, 0.0, 0.0, 0.0, 0.02, 0.0, 0.0, 0.0, 0.02)",0.0,0.0,0.0,"(0.0, 0.0, 0.0, 0.0, 0.0, 0.0, 0.0, 0.0, 0.0)",0.0,0.0,0.0,"(0.0, 0.0, 0.0, 0.0, 0.0, 0.0, 0.0, 0.0, 0.0)"
2018/12/16/17:22:10.575983,104101,1545002530,575743913,imu_link,-0.0397468157199,-0.0354349319298,0.695535335795,0.716515982306,"(0.02, 0.0, 0.0, 0.0, 0.02, 0.0, 0.0, 0.0, 0.02)",0.0,0.0,0.0,"(0.0, 0.0, 0.0, 0.0, 0.0, 0.0, 0.0, 0.0, 0.0)",0.0,0.0,0.0,"(0.0, 0.0, 0.0, 0.0, 0.0, 0.0, 0.0, 0.0, 0.0)"
2018/12/16/17:22:10.586016,104102,1545002530,585805892,imu_link,-0.0397460780066,-0.0353522831278,0.695542369857,0.716513277682,"(0.02, 0.0, 0.0, 0.0, 0.02, 0.0, 0.0, 0.0, 0.02)",0.0,0.0,0.0,"(0.0, 0.0, 0.0, 0.0, 0.0, 0.0, 0.0, 0.0, 0.0)",0.0,0.0,0.0,"(0.0, 0.0, 0.0, 0.0, 0.0, 0.0, 0.0, 0.0, 0.0)"
2018/12/16/17:22:10.596013,104103,1545002530,595777988,imu_link,-0.0397656065229,-0.0353176702512,0.695551116661,0.716505410181,"(0.02, 0.0, 0.0, 0.0, 0.02, 0.0, 0.0, 0.0, 0.02)",0.0,0.0,0.0,"(0.0, 0.0, 0.0, 0.0, 0.0, 0.0, 0.0, 0.0, 0.0)",0.0,0.0,0.0,"(0.0, 0.0, 0.0, 0.0, 0.0, 0.0, 0.0, 0.0, 0.0)"
